aX,aY,aZ,gX,gY,gZ
0.045,-0.085,0.989,1.465,-2.014,-0.183
0.046,-0.084,0.991,1.343,-2.014,-0.366
0.049,-0.086,0.990,1.404,-1.831,-0.366
0.047,-0.087,0.988,0.732,-1.892,-0.610
0.045,-0.089,0.992,0.305,-1.709,-0.488
0.044,-0.092,0.993,-0.305,-1.953,-0.244
0.046,-0.091,0.995,-0.366,-1.587,-0.244
0.048,-0.093,0.993,-0.427,-1.526,0.061
0.047,-0.095,0.992,-0.671,-1.221,0.000
0.046,-0.091,0.990,-1.221,-0.977,0.244
0.043,-0.084,0.989,-1.587,-0.977,0.549
0.048,-0.074,0.993,-1.343,-1.282,0.977
0.050,-0.070,0.992,-0.427,-0.916,0.793
0.051,-0.069,0.989,0.061,-0.977,0.244
0.048,-0.071,0.993,0.305,-1.343,0.122
0.048,-0.070,0.992,0.305,-1.404,0.000
0.049,-0.071,0.990,0.549,-1.221,-0.122
0.047,-0.076,0.991,0.916,-0.977,-0.427
0.044,-0.085,0.993,1.099,-1.343,-0.610
0.038,-0.094,0.990,0.549,-0.793,-0.671
0.040,-0.092,0.988,-0.244,-0.427,-0.549
0.042,-0.096,0.984,-0.732,-0.061,-0.244
0.042,-0.098,0.984,-1.587,0.061,0.000
0.037,-0.092,0.983,-2.441,-0.122,0.610
0.038,-0.088,0.984,-2.991,0.183,1.099
0.048,-0.091,0.985,-4.028,0.488,1.404
0.055,-0.089,0.991,-4.883,0.427,1.404
0.060,-0.083,0.999,-5.127,0.000,1.465
0.080,-0.083,1.009,-5.066,-0.183,1.648
0.086,-0.078,1.030,-4.272,-2.502,1.099
0.095,-0.058,1.058,-2.625,-5.554,0.244
0.113,-0.040,1.108,0.732,-9.521,-1.953
0.172,0.003,1.187,2.869,-16.113,-4.944
0.242,0.078,1.292,2.136,-25.330,-6.104
0.295,0.181,1.424,-2.625,-36.438,-5.920
0.351,0.354,1.568,-6.531,-45.654,-4.333
0.277,0.493,1.837,-8.301,-53.040,-3.113
0.351,0.666,2.105,-4.395,-53.040,-0.061
0.355,0.919,2.467,4.211,-43.396,10.071
0.430,1.199,2.634,4.700,-13.428,9.827
0.496,1.373,2.956,-16.418,22.461,1.343
0.510,1.353,3.423,-42.053,61.890,-15.808
0.632,1.492,3.375,-89.111,115.662,-37.537
0.673,1.820,3.108,-121.643,167.542,-55.969
0.843,2.058,2.756,-122.131,211.670,-77.454
0.970,2.020,2.598,-86.060,237.488,-101.501
0.813,1.941,2.451,-30.579,259.644,-121.460
0.562,1.818,2.329,31.555,292.053,-133.301
0.285,1.553,2.110,87.585,338.623,-137.085
-0.109,1.051,1.894,118.835,398.376,-136.230
-0.525,0.467,1.605,102.295,468.628,-131.165
-0.747,0.148,1.064,28.931,546.936,-125.061
-0.709,0.139,0.384,-60.852,601.746,-130.737
-0.479,0.373,-0.293,-138.794,604.980,-147.888
-0.366,0.653,-0.677,-186.462,555.054,-170.654
-0.515,0.750,-0.706,-199.585,469.849,-198.486
-0.722,0.456,-0.620,-192.261,381.775,-240.967
-0.953,-0.106,-0.464,-175.598,300.110,-297.302
-1.177,-0.620,-0.118,-160.461,226.318,-347.046
-1.376,-0.987,0.226,-141.602,166.504,-374.573
-1.489,-1.206,0.421,-127.563,116.577,-372.803
-1.513,-1.331,0.538,-121.216,71.655,-344.055
-1.452,-1.448,0.641,-116.272,31.128,-297.424
-1.264,-1.553,0.719,-109.192,0.427,-247.070
-1.041,-1.649,0.857,-105.652,-23.071,-203.186
-0.806,-1.666,0.968,-103.943,-36.621,-163.696
-0.585,-1.589,1.009,-104.980,-37.781,-126.404
-0.405,-1.505,1.087,-107.727,-32.166,-93.018
-0.207,-1.411,1.075,-112.061,-19.531,-64.880
0.018,-1.233,1.007,-114.319,-5.859,-40.833
0.185,-0.999,0.965,-103.210,3.540,-17.395
0.233,-0.807,0.906,-76.904,6.470,1.648
0.229,-0.714,0.844,-46.326,9.399,16.541
0.254,-0.655,0.725,-22.766,15.991,25.330
0.336,-0.565,0.591,-11.353,22.461,31.189
0.439,-0.470,0.473,-10.010,25.879,38.086
0.561,-0.378,0.364,-18.677,25.269,46.875
0.668,-0.254,0.277,-32.043,18.433,55.481
0.750,-0.109,0.225,-45.166,8.728,63.599
0.786,-0.027,0.237,-59.082,-3.174,67.566
0.810,0.030,0.302,-69.763,-13.977,65.552
0.823,0.098,0.393,-75.439,-21.667,57.251
0.817,0.106,0.498,-74.646,-27.832,43.762
0.820,0.079,0.616,-67.078,-31.067,28.748
0.829,0.032,0.712,-54.993,-31.311,14.709
0.810,-0.029,0.809,-40.649,-30.212,3.357
0.784,-0.061,0.857,-28.076,-24.536,-5.188
0.790,-0.065,0.847,-15.991,-16.541,-14.709
0.807,-0.081,0.815,-1.221,-10.193,-25.818
0.802,-0.153,0.751,13.428,-5.554,-34.546
0.795,-0.257,0.682,25.146,-1.953,-41.077
0.816,-0.343,0.622,31.006,0.061,-44.312
0.817,-0.427,0.612,30.579,-0.549,-43.396
0.812,-0.457,0.591,24.048,-1.404,-38.757
0.823,-0.445,0.587,15.381,-3.174,-30.823
0.794,-0.423,0.605,7.812,-5.005,-19.592
0.776,-0.402,0.598,1.099,-5.493,-8.179
0.792,-0.377,0.581,-4.150,-5.005,-0.488
0.815,-0.345,0.573,-8.484,-5.615,4.944
0.812,-0.315,0.581,-11.414,-6.897,8.789
0.807,-0.294,0.595,-14.893,-7.812,10.681
0.804,-0.265,0.606,-18.677,-8.545,10.742
0.780,-0.218,0.622,-20.081,-9.155,9.399
0.763,-0.176,0.605,-18.188,-7.751,7.507
0.769,-0.163,0.569,-14.771,-6.287,4.333
0.798,-0.171,0.538,-11.963,-6.165,0.244
0.822,-0.195,0.549,-9.033,-8.362,-3.723
0.803,-0.223,0.587,-7.690,-11.597,-5.554
0.776,-0.225,0.632,-7.019,-13.062,-5.493
0.752,-0.242,0.674,-4.944,-12.878,-4.822
0.733,-0.263,0.698,-3.174,-10.437,-3.601
0.728,-0.266,0.681,-1.526,-6.104,-2.502
0.747,-0.271,0.650,-0.793,-2.502,-2.380
0.760,-0.268,0.607,-1.343,0.854,-1.587
0.769,-0.262,0.562,-3.723,2.258,-0.549
0.787,-0.270,0.547,-6.470,1.099,-0.183
0.789,-0.287,0.556,-9.155,-1.160,0.793
0.772,-0.281,0.568,-12.024,-3.235,1.953
0.770,-0.252,0.591,-12.268,-5.310,2.441

0.081,-0.021,0.990,0.061,-0.793,-0.244
0.079,-0.029,0.989,1.038,-1.099,-0.854
0.074,-0.040,0.987,1.892,-1.343,-1.343
0.071,-0.051,0.991,2.441,-1.770,-1.770
0.072,-0.059,0.993,2.747,-1.465,-1.648
0.071,-0.068,0.990,2.197,-1.526,-1.648
0.074,-0.072,0.992,1.465,-1.221,-1.648
0.073,-0.071,0.991,0.732,-0.977,-1.465
0.073,-0.070,0.996,-0.061,-0.671,-0.977
0.072,-0.074,0.995,-0.916,-0.061,-0.427
0.079,-0.074,0.997,-2.075,0.610,0.183
0.081,-0.069,0.991,-3.601,0.366,0.244
0.084,-0.060,0.999,-4.150,0.366,0.549
0.086,-0.049,1.000,-4.517,-0.061,0.977
0.084,-0.040,1.000,-5.005,-0.427,0.977
0.080,-0.035,1.001,-5.432,-1.892,0.854
0.082,-0.031,1.001,-5.127,-1.465,0.610
0.079,-0.028,1.000,-4.761,-1.465,0.427
0.081,-0.027,0.999,-4.517,-1.831,0.183
0.083,-0.030,0.996,-4.150,-1.953,0.183
0.077,-0.029,0.997,-3.662,-2.197,0.122
0.078,-0.028,0.997,-2.625,-2.686,0.061
0.077,-0.033,0.988,-2.319,-2.747,-0.305
0.073,-0.031,0.988,-2.136,-2.808,-0.549
0.072,-0.028,0.988,-2.075,-3.418,-0.793
0.074,-0.035,0.988,-1.404,-3.418,-1.099
0.072,-0.048,1.000,-1.587,-4.333,-1.343
0.072,-0.051,1.007,-2.014,-5.371,-0.793
0.077,-0.051,1.013,-2.808,-5.737,-0.122
0.086,-0.047,1.027,-4.089,-6.775,0.366
0.101,-0.026,1.045,-5.676,-8.728,0.793
0.120,0.012,1.084,-6.714,-10.620,1.221
0.145,0.061,1.146,-7.446,-13.794,0.977
0.184,0.106,1.254,-9.827,-19.287,0.916
0.201,0.158,1.430,-15.686,-27.222,2.136
0.184,0.201,1.635,-27.893,-33.569,5.188
0.087,0.085,2.047,-49.255,-35.461,8.789
0.053,0.104,2.293,-91.187,-23.010,17.151
0.087,0.468,2.506,-167.114,4.395,23.010
0.201,1.081,2.750,-244.019,41.382,19.226
0.396,1.805,2.830,-304.077,89.844,15.503
0.563,2.539,2.741,-337.769,148.743,6.226
0.704,3.193,2.554,-325.073,204.956,-11.902
0.907,3.599,2.343,-269.714,247.314,-31.494
0.989,3.624,2.092,-203.979,270.630,-61.096
0.834,3.673,1.789,-129.150,284.485,-107.727
0.592,3.605,1.554,-33.325,297.546,-157.227
0.320,3.306,1.306,53.101,316.101,-204.651
0.045,2.848,1.050,116.577,341.858,-242.859
-0.118,2.201,0.755,141.235,372.498,-267.883
-0.126,1.475,0.293,107.605,400.574,-287.170
-0.029,0.790,-0.185,12.634,405.029,-306.335
0.226,0.673,-0.663,-131.714,382.263,-325.317
0.222,0.931,-0.769,-268.616,318.054,-359.985
-0.354,1.179,-0.500,-351.562,220.581,-411.072
-1.131,1.185,-0.075,-374.451,127.808,-463.989
-1.864,0.811,0.402,-343.262,56.152,-509.583
-2.641,0.086,1.084,-279.175,1.648,-537.720
-3.179,-0.636,1.342,-204.773,-21.118,-519.531
-3.017,-1.285,1.320,-141.418,-14.343,-451.477
-2.447,-1.666,1.126,-125.732,-11.230,-379.578
-2.167,-1.847,1.276,-146.851,-46.448,-323.425
-1.978,-1.969,1.543,-176.392,-86.060,-268.738
-1.802,-2.032,1.687,-200.439,-102.722,-225.891
-1.485,-2.045,1.788,-205.200,-95.093,-190.002
-0.964,-2.039,1.821,-188.538,-67.566,-152.466
-0.398,-1.958,1.782,-153.137,-34.729,-121.094
-0.118,-1.815,1.730,-101.379,-7.874,-96.008
-0.183,-1.656,1.627,-33.875,18.372,-68.237
-0.309,-1.486,1.332,31.128,51.514,-33.813
-0.230,-1.301,0.946,73.669,83.374,3.357
0.006,-1.065,0.575,83.191,103.638,42.603
0.238,-0.788,0.262,62.500,107.605,83.374
0.329,-0.497,0.041,25.513,94.910,119.080
0.390,-0.135,-0.139,-15.137,78.430,148.743
0.546,0.194,-0.244,-49.500,62.561,166.443
0.840,0.457,-0.287,-74.036,44.312,171.143
1.135,0.622,-0.242,-92.041,18.250,161.133
1.282,0.702,-0.081,-100.647,-16.479,137.085
1.236,0.777,0.270,-93.445,-54.688,105.774
1.108,0.793,0.657,-71.777,-80.627,70.557
0.980,0.719,0.980,-44.067,-89.600,33.264
0.848,0.617,1.200,-11.169,-81.726,-1.221
0.749,0.498,1.297,19.836,-60.913,-30.823
0.706,0.351,1.278,44.739,-31.677,-57.922
0.717,0.148,1.146,64.758,-2.808,-81.482
0.724,-0.047,0.959,78.369,20.508,-96.069
0.763,-0.199,0.732,84.290,35.278,-100.769
0.820,-0.328,0.547,82.703,38.330,-97.595
0.847,-0.399,0.442,75.317,31.372,-85.266
0.879,-0.430,0.406,64.087,19.531,-66.528
0.879,-0.452,0.432,48.462,5.676,-47.119
0.828,-0.446,0.506,29.907,-7.690,-27.832
0.799,-0.386,0.570,11.169,-14.465,-10.193
0.817,-0.288,0.628,-5.310,-16.357,3.540
0.819,-0.200,0.676,-18.127,-16.357,14.954
0.812,-0.145,0.708,-28.259,-13.794,21.790
0.807,-0.071,0.730,-35.645,-10.071,23.621
0.791,0.046,0.725,-36.743,-5.798,22.156
0.779,0.135,0.697,-32.654,-2.136,17.456
0.780,0.171,0.649,-23.193,0.427,9.460
0.790,0.164,0.598,-11.353,1.099,-0.977
0.800,0.117,0.584,0.366,-1.099,-11.169
0.796,0.050,0.569,8.789,-3.601,-20.569
0.777,-0.027,0.571,13.611,-5.676,-27.466
0.761,-0.095,0.586,13.672,-7.446,-30.701
0.748,-0.156,0.602,10.193,-9.033,-31.738
0.740,-0.195,0.613,6.287,-8.972,-30.151
0.736,-0.222,0.625,0.977,-9.460,-26.550
0.730,-0.240,0.643,-3.601,-9.277,-22.400
0.719,-0.233,0.648,-6.775,-8.301,-18.250
0.724,-0.216,0.659,-7.629,-6.592,-13.855
0.719,-0.208,0.669,-7.080,-5.432,-9.338
0.721,-0.197,0.666,-5.676,-3.357,-5.676
0.730,-0.182,0.648,-3.601,-1.160,-2.380
0.734,-0.181,0.627,-1.404,0.610,0.122
0.741,-0.180,0.607,-0.305,1.160,1.343
0.742,-0.180,0.606,0.122,1.404,2.014
0.740,-0.168,0.602,-0.977,1.770,2.869

0.214,-0.010,0.960,1.526,-2.991,-2.747
0.219,-0.012,0.953,1.709,-3.357,-2.686
0.223,-0.019,0.954,1.160,-3.723,-2.563
0.222,-0.024,0.964,0.671,-5.188,-1.587
0.215,-0.023,0.976,-0.732,-5.432,-0.793
0.206,-0.004,1.002,-1.099,-5.676,0.732
0.228,0.002,0.995,-0.977,-4.089,0.916
0.226,-0.000,0.990,-0.916,-4.272,0.427
0.222,0.007,0.982,-1.648,-4.395,-0.732
0.213,0.010,0.977,-0.732,-4.089,-1.587
0.206,0.008,0.975,0.305,-4.272,-1.648
0.202,0.006,0.971,0.427,-4.456,-2.197
0.202,0.005,0.971,0.427,-5.127,-2.563
0.205,0.004,0.969,0.671,-4.517,-2.869
0.207,0.006,0.968,0.610,-4.456,-3.296
0.206,0.007,0.971,0.854,-5.005,-3.357
0.202,0.008,0.976,0.793,-4.883,-3.723
0.195,0.003,0.978,1.587,-4.333,-3.906
0.194,-0.005,0.981,1.831,-4.333,-3.906
0.197,-0.012,0.981,1.892,-3.723,-3.601
0.195,-0.016,0.985,1.099,-4.272,-3.662
0.192,-0.011,0.987,0.488,-3.540,-3.418
0.194,-0.003,0.986,-0.122,-4.150,-3.052
0.203,0.000,0.986,0.122,-3.540,-3.113
0.206,0.007,0.986,0.122,-4.028,-3.174
0.213,0.015,0.990,0.122,-4.944,-3.418
0.227,0.018,0.996,1.770,-4.517,-3.906
0.239,0.016,1.003,2.991,-6.165,-4.395
0.248,0.020,1.020,4.272,-7.446,-4.028
0.279,0.031,1.053,5.188,-10.132,-3.113
0.321,0.021,1.113,5.859,-13.489,-1.282
0.348,-0.012,1.220,5.066,-19.409,3.540
0.361,-0.063,1.369,-1.465,-26.489,14.771
0.333,-0.150,1.570,-17.639,-31.433,33.630
0.299,-0.156,1.760,-50.720,-29.846,58.350
0.308,-0.116,1.879,-101.624,-21.667,83.984
0.286,0.117,2.010,-164.001,-10.681,110.107
0.286,0.666,2.122,-232.300,10.132,132.751
0.228,1.399,2.214,-291.321,40.405,143.799
0.215,2.425,2.166,-333.862,80.750,141.052
0.252,3.432,2.057,-338.928,123.169,118.408
0.359,4.000,1.900,-302.307,158.936,74.036
0.420,4.000,1.654,-238.586,186.157,8.606
0.334,4.000,1.381,-155.273,204.163,-71.594
0.292,4.000,1.108,-69.824,218.018,-154.175
0.312,3.952,0.771,-12.146,224.304,-233.704
0.363,3.575,0.441,17.944,221.985,-310.486
0.320,3.053,0.235,20.508,199.707,-384.277
0.168,2.432,0.172,-5.005,163.940,-449.158
-0.130,1.890,0.304,-45.898,122.742,-503.967
-0.523,1.456,0.513,-89.783,84.900,-549.683
-1.058,1.001,0.838,-124.390,56.641,-584.778
-1.726,0.361,1.209,-145.813,45.532,-606.689
-2.363,-0.248,1.592,-167.358,58.899,-612.122
-2.941,-0.746,1.808,-176.392,96.985,-597.778
-3.089,-1.045,1.528,-161.743,143.982,-553.711
-2.821,-1.232,1.071,-141.724,170.654,-503.418
-2.358,-1.545,0.896,-129.211,154.724,-466.614
-1.994,-2.207,1.007,-131.958,105.774,-417.480
-1.755,-2.744,1.149,-164.368,60.425,-336.426
-1.679,-2.666,1.111,-218.384,35.217,-250.183
-1.481,-2.340,1.005,-259.216,23.193,-183.289
-1.119,-2.101,0.882,-269.348,19.409,-135.315
-0.613,-1.955,0.754,-251.038,18.677,-101.074
0.020,-1.862,0.778,-206.177,13.916,-81.848
0.437,-1.702,0.953,-137.878,0.854,-73.975
0.309,-1.415,1.153,-49.927,-13.367,-61.096
-0.135,-1.096,1.263,38.147,-13.000,-29.602
-0.322,-0.877,1.107,90.271,14.526,9.644
-0.113,-0.766,0.831,90.515,52.551,44.739
0.180,-0.549,0.488,47.546,78.430,75.745
0.390,-0.155,0.166,-12.512,84.595,101.501
0.570,0.286,-0.080,-58.350,74.402,119.385
0.754,0.580,-0.178,-85.632,47.852,126.160
0.903,0.739,-0.166,-98.450,17.517,122.192
1.015,0.799,-0.036,-102.295,-15.564,103.882
1.086,0.798,0.193,-93.872,-45.288,71.594
1.051,0.796,0.489,-72.021,-72.083,35.034
0.872,0.709,0.846,-36.743,-87.708,3.174
0.641,0.552,1.155,-1.770,-84.412,-23.621
0.518,0.394,1.306,26.123,-62.988,-49.255
0.498,0.205,1.271,47.363,-32.288,-72.388
0.573,-0.010,1.098,62.012,0.244,-89.966
0.645,-0.203,0.905,68.054,23.071,-99.609
0.700,-0.332,0.691,69.580,36.438,-99.182
0.747,-0.451,0.536,64.880,37.109,-92.712
0.756,-0.542,0.448,55.603,30.212,-79.834
0.756,-0.582,0.407,39.551,18.921,-61.462
0.766,-0.551,0.422,19.775,5.371,-39.795
0.760,-0.495,0.497,0.427,-6.958,-16.602
0.772,-0.408,0.595,-16.846,-15.991,3.845
0.760,-0.276,0.686,-32.288,-22.339,21.851
0.734,-0.127,0.764,-41.931,-22.644,33.875
0.725,0.011,0.831,-46.448,-20.813,37.048
0.734,0.123,0.862,-44.556,-13.489,33.997
0.750,0.218,0.833,-39.917,-6.348,27.588
0.769,0.282,0.792,-29.541,0.061,17.700
0.784,0.306,0.736,-15.015,4.883,5.798
0.798,0.257,0.670,-1.953,5.737,-7.019
0.833,0.191,0.615,8.667,5.371,-19.958
0.849,0.136,0.568,13.489,1.282,-30.762
0.822,0.090,0.558,14.221,-4.150,-38.391
0.782,0.029,0.587,13.000,-10.071,-45.044
0.744,-0.069,0.629,10.254,-14.648,-49.805
0.708,-0.160,0.671,6.042,-15.869,-51.147
0.643,-0.184,0.720,3.845,-14.709,-47.852
0.611,-0.197,0.728,4.639,-10.925,-40.588
0.632,-0.239,0.712,6.104,-6.104,-32.532
0.676,-0.275,0.687,6.165,-2.136,-23.621
0.713,-0.278,0.658,4.028,0.916,-15.137
0.724,-0.258,0.639,-0.732,1.770,-7.385
0.722,-0.220,0.639,-7.385,0.244,-1.709
0.715,-0.170,0.652,-10.193,1.343,1.831
0.705,-0.128,0.662,-12.451,-0.305,4.395
0.707,-0.105,0.652,-12.268,1.526,4.456
0.726,-0.098,0.639,-10.742,1.709,2.625
0.746,-0.102,0.627,-8.179,1.709,0.793
0.755,-0.107,0.628,-7.202,0.488,0.061
0.747,-0.105,0.635,-7.141,-0.854,-0.183

0.114,-0.083,0.924,7.874,0.122,-4.333
0.117,-0.093,0.922,9.521,-0.427,-4.272
0.119,-0.100,0.932,8.484,-3.906,-3.479
0.121,-0.096,0.943,7.446,-5.493,-2.136
0.129,-0.084,0.959,5.737,-6.897,-0.854
0.135,-0.069,0.976,4.578,-8.667,0.305
0.143,-0.056,0.996,3.418,-9.094,0.488
0.133,-0.045,1.013,2.930,-10.986,0.305
0.111,-0.047,1.083,3.540,-9.888,-0.732
0.109,-0.053,1.118,4.211,-6.653,-1.709
0.121,-0.054,1.067,4.883,-3.479,-3.052
0.150,-0.067,1.013,5.432,-2.808,-4.456
0.153,-0.082,0.988,6.775,-2.319,-4.944
0.139,-0.072,0.969,7.935,-3.723,-3.967
0.127,-0.075,0.968,9.216,-5.981,-2.991
0.112,-0.089,0.976,10.437,-5.615,-3.174
0.112,-0.090,0.978,10.132,-5.249,-3.052
0.118,-0.102,0.982,10.559,-4.028,-3.418
0.116,-0.113,0.995,10.254,-5.066,-3.845
0.116,-0.122,1.000,10.498,-4.700,-2.625
0.115,-0.133,1.000,9.155,-4.089,-1.709
0.115,-0.132,1.000,6.653,-4.944,-0.916
0.115,-0.124,1.001,4.944,-3.235,-0.427
0.114,-0.114,1.000,3.418,-3.601,0.366
0.112,-0.102,1.000,2.930,-3.906,0.183
0.114,-0.087,1.000,3.174,-3.723,-0.244
0.116,-0.077,1.010,3.906,-5.188,-1.221
0.119,-0.075,1.021,6.165,-5.432,-2.197
0.133,-0.070,1.042,7.385,-7.385,-2.991
0.138,-0.064,1.075,9.033,-8.789,-4.333
0.167,-0.089,1.117,9.583,-10.071,-5.920
0.225,-0.139,1.215,7.812,-14.893,-4.517
0.238,-0.171,1.333,0.061,-23.071,2.808
0.225,-0.122,1.482,-10.498,-28.381,13.733
0.196,-0.049,1.711,-19.165,-35.461,26.367
0.091,-0.070,2.040,-29.846,-34.485,34.729
0.028,-0.043,2.348,-56.152,-16.541,41.077
0.129,0.090,2.557,-97.656,11.169,46.204
0.300,0.409,2.730,-144.104,36.682,55.420
0.382,0.850,2.804,-192.932,61.707,70.801
0.374,1.415,2.769,-239.380,90.271,84.656
0.344,2.057,2.646,-268.799,125.244,83.740
0.334,2.715,2.455,-273.804,163.696,64.758
0.292,3.377,2.164,-255.981,203.491,33.081
0.355,3.988,1.814,-219.788,239.502,-9.399
0.422,4.000,1.450,-157.410,266.602,-75.745
0.531,4.000,1.153,-68.481,275.757,-159.546
0.615,3.943,0.864,16.541,265.015,-246.033
0.556,3.206,0.706,77.209,236.816,-335.632
0.199,2.087,0.694,105.225,197.449,-422.974
-0.290,1.229,0.806,91.980,164.856,-481.018
-0.837,0.497,0.862,46.082,153.320,-500.977
-1.300,-0.150,0.835,-27.344,158.569,-490.417
-1.590,-0.654,0.746,-115.112,182.739,-459.656
-1.763,-1.030,0.631,-204.346,212.952,-437.317
-1.814,-1.112,0.585,-284.363,227.539,-435.059
-1.778,-0.938,0.496,-342.651,228.333,-434.570
-1.799,-0.725,0.349,-371.521,208.801,-426.392
-1.880,-0.707,0.328,-361.755,157.166,-404.236
-1.838,-0.844,0.457,-319.641,89.966,-362.976
-1.689,-1.011,0.670,-265.076,18.799,-306.091
-1.520,-1.190,0.834,-226.074,-40.588,-251.465
-1.481,-1.380,1.001,-212.769,-87.036,-212.646
-1.467,-1.453,1.242,-209.045,-113.281,-191.101
-1.300,-1.402,1.450,-203.735,-106.506,-184.875
-0.974,-1.299,1.589,-188.416,-74.768,-190.918
-0.682,-1.171,1.558,-147.339,-32.288,-194.458
-0.510,-1.061,1.418,-72.754,9.827,-190.369
-0.403,-1.015,1.208,30.151,43.030,-179.199
-0.254,-0.991,0.895,133.911,70.068,-154.053
-0.032,-1.070,0.614,202.332,85.876,-109.985
0.263,-1.187,0.382,204.163,90.820,-56.824
0.548,-1.283,0.225,142.395,83.679,-8.728
0.624,-1.038,0.117,47.852,65.552,36.987
0.571,-0.553,0.104,-40.588,46.753,78.735
0.557,-0.100,0.176,-99.243,28.015,104.004
0.630,0.245,0.258,-121.155,13.855,107.056
0.749,0.426,0.373,-113.892,0.366,92.773
0.863,0.489,0.487,-91.675,-10.742,70.374
0.930,0.480,0.608,-63.782,-22.827,43.945
0.899,0.426,0.772,-32.227,-35.950,17.090
0.783,0.333,0.947,0.732,-44.250,-6.470
0.654,0.195,1.029,29.358,-40.588,-26.550
0.583,0.079,1.021,50.293,-27.161,-44.250
0.601,-0.066,0.950,65.674,-11.047,-58.594
0.639,-0.285,0.854,68.420,2.014,-65.308
0.650,-0.446,0.710,54.871,13.062,-60.791
0.679,-0.491,0.573,31.860,16.907,-48.950
0.742,-0.494,0.505,12.451,13.062,-36.499
0.781,-0.480,0.520,-2.747,0.549,-23.132
0.729,-0.472,0.603,-12.451,-13.489,-6.592
0.676,-0.427,0.675,-21.912,-21.179,8.972
0.658,-0.330,0.748,-31.067,-23.743,20.142
0.630,-0.226,0.847,-38.208,-24.658,27.832
0.614,-0.148,0.925,-40.833,-18.127,32.959
0.621,-0.092,0.958,-40.649,-9.277,35.706
0.667,-0.032,0.921,-38.086,2.258,34.546
0.689,0.046,0.851,-34.485,13.123,29.724
0.706,0.119,0.752,-28.809,18.005,23.071
0.771,0.130,0.655,-21.912,20.020,13.794
0.833,0.096,0.601,-14.893,15.137,3.235
0.847,0.052,0.614,-7.996,6.042,-4.822
0.799,-0.004,0.673,-3.784,-4.272,-9.888
0.756,-0.045,0.719,1.099,-8.484,-13.611
0.734,-0.066,0.752,4.822,-12.512,-15.686
0.703,-0.089,0.782,9.094,-12.146,-15.137
0.680,-0.123,0.800,9.399,-10.986,-12.817
0.658,-0.163,0.812,7.141,-8.240,-11.292
0.651,-0.185,0.796,3.235,-3.906,-10.803
0.675,-0.191,0.772,-0.122,0.305,-10.559
0.699,-0.192,0.753,0.183,3.296,-9.827
0.688,-0.184,0.730,1.892,3.418,-8.057
0.674,-0.183,0.700,4.456,2.991,-5.737
0.675,-0.173,0.671,5.066,1.404,-3.784
0.663,-0.143,0.649,6.165,1.587,-1.404
0.660,-0.141,0.626,4.700,0.732,0.549
0.697,-0.174,0.630,1.953,0.244,1.404
0.705,-0.185,0.648,-3.052,-1.709,3.235
0.681,-0.164,0.659,-8.423,-3.174,5.737

0.134,0.101,0.931,11.780,-4.150,-6.104
0.133,0.076,0.923,11.597,-4.395,-6.592
0.138,0.057,0.931,11.780,-3.723,-6.409
0.146,0.047,0.943,11.475,-4.761,-6.165
0.150,0.034,0.969,11.658,-4.578,-5.981
0.151,0.018,0.986,11.780,-4.089,-5.737
0.160,0.002,0.996,10.986,-3.296,-5.493
0.168,-0.002,1.000,9.644,-3.784,-4.395
0.172,0.000,1.015,8.179,-2.869,-2.930
0.162,-0.006,1.044,5.676,-4.028,-1.953
0.168,0.014,1.013,2.747,-0.854,-1.770
0.184,0.031,0.990,0.305,-0.549,-1.526
0.183,0.035,0.982,0.977,0.122,-1.404
0.169,0.046,0.974,0.671,-1.770,-0.305
0.156,0.059,0.972,1.709,-2.197,-0.488
0.151,0.061,0.968,3.296,-2.686,-1.587
0.150,0.062,0.961,5.005,-2.197,-3.052
0.150,0.067,0.959,6.165,-2.686,-4.089
0.154,0.065,0.964,7.812,-2.380,-4.700
0.157,0.058,0.971,8.850,-3.113,-5.310
0.161,0.054,0.976,9.949,-4.211,-5.432
0.157,0.033,0.991,10.742,-5.188,-5.615
0.152,0.035,1.014,10.742,-6.531,-4.578
0.151,0.047,1.014,9.766,-6.470,-2.930
0.156,0.046,1.006,8.240,-6.409,-2.563
0.165,0.042,1.000,7.812,-5.920,-2.441
0.171,0.039,0.987,8.301,-5.859,-2.319
0.176,0.032,0.980,9.338,-6.287,-2.075
0.187,0.031,0.990,10.132,-7.690,-2.136
0.205,0.037,1.021,11.169,-9.827,-2.014
0.230,0.045,1.074,11.475,-12.573,-0.732
0.249,0.041,1.135,9.705,-15.686,1.587
0.273,0.016,1.210,4.639,-20.142,5.859
0.310,-0.013,1.303,-4.028,-27.161,14.282
0.314,-0.042,1.474,-19.104,-34.790,27.527
0.279,-0.061,1.755,-44.922,-38.208,45.959
0.318,0.045,1.961,-93.994,-31.311,68.970
0.301,0.222,2.162,-163.025,-17.639,91.980
0.287,0.849,2.205,-247.375,7.568,112.854
0.213,1.618,2.278,-316.345,42.358,122.192
0.226,2.543,2.226,-356.689,86.914,114.441
0.330,3.498,2.119,-357.239,133.118,86.060
0.449,4.000,1.995,-312.073,169.250,32.166
0.403,4.000,1.846,-233.215,193.420,-36.743
0.310,4.000,1.616,-147.766,211.304,-103.027
0.141,4.000,1.326,-70.557,225.952,-164.185
-0.045,3.880,1.052,-10.254,235.962,-223.999
-0.122,3.478,0.829,19.775,243.286,-283.997
-0.085,2.908,0.607,11.536,240.173,-344.666
-0.040,2.327,0.481,-25.635,223.328,-399.963
-0.129,1.845,0.419,-81.543,192.139,-447.266
-0.415,1.470,0.416,-140.320,158.752,-489.746
-0.911,1.044,0.577,-184.998,126.404,-531.311
-1.436,0.549,0.897,-215.454,100.403,-571.045
-2.127,-0.114,1.238,-234.619,80.811,-607.849
-2.825,-0.634,1.466,-242.126,68.604,-619.690
-3.313,-0.859,1.459,-233.765,67.566,-598.389
-3.286,-0.892,1.103,-197.449,60.974,-557.739
-2.757,-0.942,0.731,-121.704,32.471,-513.611
-2.361,-1.519,0.790,-47.241,-16.052,-470.337
-2.239,-2.423,1.008,-30.334,-53.711,-416.565
-1.987,-3.050,1.156,-73.242,-61.218,-352.722
-1.439,-3.091,1.206,-149.658,-50.171,-289.551
-0.808,-2.879,1.248,-206.482,-33.569,-225.403
-0.377,-2.637,1.224,-222.900,-17.151,-151.489
-0.286,-2.309,1.257,-189.453,-7.202,-83.740
-0.433,-1.878,1.208,-112.610,7.751,-23.315
-0.524,-1.484,1.001,-37.231,33.508,36.011
-0.376,-1.105,0.720,1.831,64.392,91.614
-0.115,-0.688,0.407,-5.554,87.158,138.489
0.151,-0.196,0.090,-45.105,96.863,168.335
0.403,0.342,-0.131,-87.158,87.158,176.208
0.660,0.807,-0.177,-107.544,63.232,164.429
0.863,1.097,-0.077,-105.652,30.151,138.672
0.973,1.179,0.120,-91.003,0.366,107.422
0.997,1.091,0.350,-73.730,-20.569,69.702
0.991,0.955,0.596,-53.589,-35.095,26.550
0.977,0.828,0.817,-29.114,-41.260,-15.625
0.888,0.657,0.995,1.587,-42.480,-50.842
0.761,0.451,1.128,35.400,-37.781,-76.355
0.636,0.222,1.185,64.453,-24.231,-91.858
0.581,-0.009,1.092,80.627,-1.953,-100.220
0.609,-0.194,0.906,83.618,21.423,-104.919
0.685,-0.328,0.697,80.200,35.339,-106.628
0.759,-0.420,0.527,72.449,38.635,-102.600
0.785,-0.492,0.421,62.073,33.020,-92.773
0.829,-0.550,0.361,50.842,20.325,-77.454
0.828,-0.603,0.386,37.476,4.272,-56.763
0.766,-0.601,0.455,21.545,-9.705,-32.288
0.724,-0.550,0.526,3.967,-19.287,-10.620
0.717,-0.462,0.604,-11.047,-25.330,6.531
0.685,-0.339,0.691,-22.949,-28.564,20.447
0.669,-0.209,0.739,-28.931,-24.719,30.762
0.680,-0.077,0.765,-29.297,-18.982,34.485
0.718,0.040,0.757,-26.611,-11.353,32.715
0.759,0.147,0.729,-20.935,-5.676,26.550
0.796,0.205,0.688,-12.512,-2.380,16.663
0.834,0.193,0.658,-3.967,-1.221,3.906
0.852,0.140,0.639,3.174,-2.869,-9.094
0.840,0.103,0.630,10.071,-5.737,-21.729
0.796,0.053,0.643,17.334,-9.827,-31.799
0.764,-0.030,0.648,22.400,-11.475,-38.635
0.759,-0.141,0.650,24.414,-11.780,-43.030
0.747,-0.251,0.669,22.339,-12.024,-42.786
0.736,-0.331,0.683,14.526,-10.681,-36.743
0.716,-0.363,0.704,5.371,-9.338,-27.893
0.702,-0.336,0.707,-2.380,-8.118,-17.029
0.702,-0.290,0.702,-7.812,-5.981,-6.775
0.699,-0.227,0.689,-10.071,-4.578,1.160
0.707,-0.190,0.693,-9.583,-4.517,6.165
0.713,-0.175,0.717,-8.057,-4.578,8.545
0.704,-0.159,0.723,-6.958,-2.686,9.277
0.717,-0.144,0.721,-6.287,-1.648,9.277
0.730,-0.124,0.712,-6.348,0.488,8.911
0.736,-0.096,0.683,-6.775,2.808,8.545
0.747,-0.075,0.655,-6.042,3.357,6.287
0.753,-0.063,0.634,-3.479,2.686,2.869
0.724,-0.062,0.621,-0.488,0.916,0.366
0.719,-0.073,0.614,1.587,0.427,-0.671

0.178,-0.078,0.993,-0.488,-2.808,5.432
0.186,-0.066,0.988,-5.005,-3.113,6.531
0.186,-0.053,0.978,-7.568,-3.662,6.531
0.176,-0.044,0.974,-8.911,-4.089,6.836
0.158,-0.023,0.973,-9.338,-4.456,6.714
0.161,-0.003,0.967,-7.935,-4.395,6.104
0.161,-0.002,0.969,-6.409,-4.822,4.517
0.151,0.004,0.976,-4.395,-5.066,3.052
0.152,0.017,0.976,-2.319,-5.371,2.075
0.158,0.019,0.982,-0.916,-5.066,0.610
0.155,0.022,0.986,0.610,-5.371,-0.671
0.152,0.018,0.989,2.441,-5.432,-1.404
0.151,0.010,0.985,3.906,-4.883,-2.319
0.147,0.005,0.981,4.639,-4.944,-3.357
0.143,-0.007,0.979,5.554,-4.639,-4.211
0.146,-0.018,0.980,6.409,-4.822,-4.944
0.154,-0.019,0.987,6.714,-5.310,-5.188
0.148,-0.020,0.997,7.507,-5.127,-5.737
0.149,-0.014,1.000,9.460,-4.456,-6.226
0.156,-0.021,0.985,11.536,-3.235,-7.202
0.162,-0.043,0.973,13.550,-2.930,-8.850
0.164,-0.061,0.972,14.587,-3.235,-8.850
0.154,-0.076,0.984,14.648,-3.479,-7.507
0.159,-0.089,0.992,12.939,-3.784,-5.493
0.176,-0.099,1.003,9.277,-4.150,-2.136
0.190,-0.093,1.021,4.333,-5.310,2.197
0.205,-0.069,1.039,-0.916,-6.836,6.409
0.221,-0.060,1.056,-4.944,-8.728,9.094
0.241,-0.064,1.075,-8.606,-10.681,11.353
0.247,-0.055,1.114,-14.099,-13.184,15.564
0.218,-0.050,1.152,-22.095,-16.357,22.095
0.224,-0.031,1.250,-34.668,-17.334,29.602
0.212,0.038,1.428,-51.514,-16.724,36.499
0.208,0.183,1.513,-76.782,-10.254,43.335
0.240,0.476,1.627,-102.539,-0.610,50.049
0.263,0.776,1.722,-117.371,11.230,50.293
0.343,1.041,1.802,-120.178,22.400,43.457
0.426,1.261,1.879,-115.417,32.471,35.645
0.457,1.428,1.969,-109.619,41.565,29.480
0.408,1.569,2.064,-111.633,54.810,23.315
0.371,1.746,2.109,-125.000,74.585,13.550
0.396,2.042,2.097,-144.165,99.182,-1.038
0.453,2.422,2.037,-155.884,123.474,-22.461
0.476,2.745,2.000,-153.625,144.226,-52.673
0.530,2.904,1.897,-143.311,163.696,-90.332
0.600,2.913,1.737,-127.502,179.382,-137.207
0.639,2.815,1.582,-107.117,188.599,-188.538
0.513,2.586,1.471,-92.773,190.857,-235.413
0.411,2.304,1.314,-95.093,195.801,-272.949
0.338,2.007,1.173,-113.953,196.777,-309.326
0.170,1.800,1.078,-140.442,188.477,-343.567
-0.043,1.655,1.009,-167.236,176.514,-371.094
-0.341,1.399,0.971,-189.331,158.203,-404.480
-0.883,0.929,1.058,-203.857,130.737,-446.655
-1.453,0.398,1.140,-219.971,109.985,-481.689
-2.068,-0.093,1.255,-229.065,96.924,-507.019
-2.598,-0.482,1.281,-215.088,89.294,-516.418
-2.764,-0.893,1.141,-187.195,89.417,-505.371
-2.641,-1.268,0.963,-162.659,78.552,-479.004
-2.255,-1.421,0.841,-134.155,59.875,-435.608
-1.900,-1.615,0.794,-109.497,36.011,-394.287
-1.564,-1.809,0.741,-89.905,10.254,-362.610
-1.297,-1.990,0.800,-73.669,-9.705,-332.947
-1.001,-2.179,0.891,-69.336,-18.188,-299.377
-0.667,-2.225,0.864,-74.402,-10.803,-257.751
-0.407,-2.193,0.837,-63.538,-0.977,-217.529
-0.335,-2.076,0.834,-29.907,6.592,-173.401
-0.395,-1.942,0.746,7.019,19.348,-116.272
-0.299,-1.690,0.585,23.132,38.147,-45.715
-0.038,-1.294,0.432,9.766,52.979,25.940
0.158,-0.840,0.274,-32.043,56.335,85.571
0.243,-0.282,0.147,-77.820,49.805,126.770
0.374,0.286,0.065,-105.103,37.842,142.883
0.606,0.696,0.084,-105.835,21.118,130.371
0.833,0.845,0.211,-82.458,0.000,97.778
0.926,0.796,0.404,-48.401,-19.714,56.580
0.916,0.654,0.606,-12.390,-33.752,15.076
0.848,0.457,0.775,18.677,-40.771,-22.705
0.761,0.218,0.904,41.931,-39.001,-51.331
0.660,-0.067,0.976,57.190,-28.015,-67.505
0.641,-0.267,0.947,65.552,-10.315,-70.129
0.686,-0.377,0.819,64.331,7.568,-63.538
0.711,-0.455,0.655,53.955,19.165,-54.504
0.764,-0.503,0.500,39.124,23.254,-44.434
0.839,-0.518,0.429,24.292,18.250,-34.119
0.876,-0.522,0.443,12.573,6.470,-22.339
0.846,-0.492,0.520,2.563,-7.874,-9.155
0.752,-0.436,0.627,-4.883,-18.372,4.150
0.668,-0.373,0.731,-10.132,-22.583,15.564
0.636,-0.272,0.792,-15.076,-20.020,22.583
0.634,-0.158,0.797,-17.822,-13.184,25.452
0.672,-0.081,0.769,-16.113,-5.493,25.757
0.730,-0.066,0.744,-12.024,0.183,23.804
0.781,-0.057,0.713,-9.033,3.479,20.325
0.805,-0.027,0.681,-7.141,4.089,17.395
0.800,0.020,0.646,-7.324,3.479,14.343
0.792,0.069,0.614,-8.118,1.343,9.644
0.781,0.081,0.607,-6.653,-1.038,2.808
0.770,0.051,0.624,-4.089,-3.845,-5.066
0.767,-0.022,0.646,0.488,-5.798,-11.719
0.762,-0.090,0.666,2.686,-6.775,-15.686
0.747,-0.145,0.675,4.822,-6.714,-15.869
0.756,-0.210,0.662,4.211,-5.371,-14.160
0.755,-0.256,0.666,2.747,-4.944,-11.963
0.747,-0.271,0.662,0.183,-5.249,-7.690
0.729,-0.254,0.665,-2.808,-5.676,-3.113
0.709,-0.228,0.664,-5.188,-5.676,1.648
0.716,-0.204,0.653,-8.484,-4.761,4.700
0.732,-0.167,0.656,-10.193,-4.333,5.920
0.745,-0.139,0.672,-9.399,-4.944,6.226
0.750,-0.122,0.698,-6.592,-5.615,6.775
0.734,-0.087,0.722,-2.808,-5.676,7.996
0.742,-0.065,0.724,-0.305,-4.028,7.446
0.752,-0.065,0.720,2.136,-3.113,4.272
0.739,-0.059,0.699,4.395,-1.953,1.831
0.734,-0.057,0.654,6.470,-0.061,-0.305
0.750,-0.095,0.628,8.362,0.183,-3.906
0.768,-0.129,0.621,8.606,-0.610,-6.165
0.753,-0.141,0.623,7.629,-1.648,-6.409

0.064,-0.068,1.000,1.160,1.221,-2.319
0.070,-0.071,1.001,1.099,0.610,-2.686
0.071,-0.073,1.004,1.099,-0.061,-2.502
0.074,-0.072,1.003,1.343,-0.488,-2.075
0.072,-0.078,1.006,1.709,-1.648,-2.075
0.072,-0.076,1.006,1.343,-2.563,-1.282
0.068,-0.074,1.004,0.793,-3.052,-0.305
0.061,-0.071,1.000,-0.732,-3.357,0.061
0.062,-0.069,0.992,-1.648,-3.601,0.305
0.063,-0.069,0.987,-1.404,-3.296,0.366
0.059,-0.067,0.979,-0.854,-3.601,0.427
0.052,-0.069,0.979,0.366,-3.723,0.488
0.052,-0.068,0.980,1.587,-3.723,0.305
0.058,-0.063,0.976,2.441,-2.869,0.244
0.059,-0.060,0.981,3.601,-2.747,-0.061
0.059,-0.062,0.988,5.127,-2.930,-0.732
0.058,-0.075,0.989,6.165,-2.747,-1.770
0.057,-0.090,0.997,7.263,-3.174,-2.258
0.059,-0.101,1.000,6.287,-3.906,-1.709
0.059,-0.107,1.000,3.784,-4.211,-0.732
0.051,-0.101,1.001,1.282,-4.578,0.427
0.049,-0.084,0.997,-0.732,-4.578,1.343
0.055,-0.073,0.992,-1.221,-4.150,1.465
0.061,-0.062,0.985,-1.221,-4.761,0.854
0.070,-0.055,0.986,0.488,-4.761,0.488
0.070,-0.048,1.000,2.136,-5.798,-0.183
0.062,-0.043,1.017,3.662,-6.531,-0.916
0.061,-0.044,1.038,5.127,-7.141,-1.343
0.076,-0.045,1.056,5.737,-8.362,-1.770
0.101,-0.063,1.094,5.066,-11.719,-0.305
0.122,-0.075,1.152,1.831,-16.235,3.967
0.153,-0.087,1.219,-5.920,-21.790,9.155
0.195,-0.117,1.313,-17.334,-30.823,15.015
0.206,-0.141,1.418,-35.461,-42.236,24.353
0.204,-0.149,1.537,-60.669,-52.124,38.025
0.126,-0.080,1.882,-95.215,-59.387,55.420
0.038,0.307,2.137,-150.269,-48.035,71.716
0.014,0.867,2.189,-220.154,-16.968,78.918
-0.063,1.448,2.351,-268.616,13.611,76.782
-0.084,2.179,2.434,-288.635,52.429,70.129
-0.013,2.886,2.401,-276.855,98.145,50.171
0.053,3.407,2.258,-235.657,139.465,11.963
0.076,3.667,2.025,-168.091,176.575,-34.607
0.136,3.656,1.793,-97.717,209.290,-78.247
0.155,3.469,1.513,-48.218,233.276,-120.239
0.226,3.239,1.144,-25.208,254.761,-160.400
0.345,2.961,0.886,-29.724,259.155,-206.360
0.390,2.666,0.706,-57.800,242.310,-259.583
0.438,2.309,0.502,-106.201,216.919,-308.289
0.407,1.980,0.397,-161.926,175.659,-359.253
0.208,1.681,0.511,-203.918,120.300,-421.936
-0.378,1.374,0.901,-215.698,64.941,-488.953
-1.220,1.027,1.315,-198.486,27.161,-546.570
-2.392,0.499,1.915,-158.875,13.489,-589.050
-3.005,0.261,1.736,-111.694,48.096,-600.769
-2.916,0.043,1.681,-53.284,82.214,-602.356
-2.768,-0.701,1.856,40.588,59.143,-609.192
-2.848,-1.653,2.032,61.951,56.946,-577.820
-2.987,-2.592,2.068,33.020,79.895,-524.048
-2.778,-3.299,1.807,-34.241,126.587,-456.055
-2.196,-3.295,1.293,-115.479,180.054,-366.028
-1.627,-2.937,0.766,-171.204,210.327,-275.574
-1.093,-2.587,0.292,-201.538,212.585,-191.589
-0.659,-2.227,-0.083,-199.219,192.261,-113.281
-0.276,-1.739,-0.288,-165.710,156.982,-47.668
-0.068,-1.229,-0.378,-116.882,114.563,3.296
-0.039,-0.764,-0.344,-66.467,72.205,42.603
0.039,-0.427,-0.205,-28.748,38.269,68.970
0.310,-0.117,-0.044,-23.071,14.771,80.505
0.465,0.097,0.201,-37.842,-8.118,72.815
0.450,0.321,0.409,-48.157,-23.621,55.481
0.401,0.490,0.545,-42.175,-26.550,28.992
0.420,0.546,0.647,-18.799,-22.217,-1.526
0.473,0.445,0.650,11.963,-12.268,-27.893
0.524,0.253,0.599,43.945,-3.662,-47.974
0.563,-0.061,0.610,66.345,1.343,-60.181
0.629,-0.324,0.586,66.284,5.920,-64.453
0.690,-0.486,0.593,59.570,5.981,-59.937
0.736,-0.519,0.592,45.715,4.517,-45.288
0.738,-0.471,0.588,26.245,2.258,-25.208
0.762,-0.349,0.600,10.376,-1.526,-5.310
0.784,-0.286,0.620,-2.502,-5.249,7.568
0.782,-0.214,0.670,-12.268,-9.583,15.015
0.769,-0.103,0.703,-18.066,-11.047,19.348
0.766,-0.032,0.722,-19.043,-10.864,18.311
0.776,-0.004,0.752,-15.198,-11.963,13.428
0.779,0.037,0.742,-9.460,-11.353,10.925
0.775,0.047,0.725,-6.409,-9.583,9.399
0.793,0.035,0.740,-6.470,-9.094,4.517
0.808,0.049,0.725,-8.911,-7.629,-0.671
0.811,0.065,0.708,-11.230,-6.958,-5.005
0.811,0.055,0.713,-9.399,-7.935,-9.094
0.788,0.007,0.728,-4.700,-9.277,-14.038
0.756,-0.019,0.717,0.977,-9.399,-15.259
0.725,-0.033,0.674,1.160,-8.545,-14.893
0.708,-0.047,0.655,-1.282,-7.629,-16.602
0.711,-0.079,0.661,-3.479,-6.897,-18.799
0.720,-0.130,0.679,-5.920,-5.432,-19.531
0.718,-0.178,0.724,-6.226,-5.981,-18.555
0.690,-0.193,0.758,-5.493,-4.211,-13.367
0.680,-0.178,0.728,-7.019,0.427,-6.531
0.704,-0.172,0.679,-9.583,3.723,-2.258
0.738,-0.161,0.644,-11.414,4.272,0.549
0.765,-0.133,0.620,-13.306,3.296,3.052
0.772,-0.098,0.623,-14.526,-0.427,4.883
0.768,-0.086,0.640,-15.503,-4.028,5.920
0.767,-0.087,0.657,-15.991,-6.287,5.615
0.722,-0.069,0.664,-16.174,-8.728,4.211
0.706,-0.043,0.674,-16.602,-8.911,3.479
0.676,-0.018,0.682,-15.442,-9.033,1.831
0.671,0.010,0.686,-10.010,-8.057,1.648
0.703,-0.020,0.684,-4.028,-7.019,0.488
0.717,-0.068,0.691,-0.366,-7.141,-1.221
0.712,-0.092,0.708,1.282,-7.324,-2.136
0.705,-0.094,0.712,-0.061,-6.592,-3.296
0.697,-0.072,0.698,-1.587,-4.822,-4.822
0.702,-0.060,0.688,-0.549,-3.540,-5.981
0.732,-0.080,0.671,1.221,-2.075,-6.287
0.739,-0.094,0.658,2.258,-1.831,-6.287

0.122,-0.054,0.996,-3.601,-1.953,0.061
0.125,-0.044,0.992,-3.784,-1.404,0.732
0.133,-0.033,0.990,-3.784,-1.160,1.404
0.138,-0.025,0.988,-3.723,-1.160,1.343
0.136,-0.020,0.990,-2.991,-1.526,1.221
0.134,-0.018,0.987,-2.563,-1.648,1.038
0.129,-0.021,0.989,-2.075,-2.136,0.671
0.122,-0.024,0.990,-1.343,-2.380,0.732
0.116,-0.024,0.988,-0.977,-2.625,0.610
0.110,-0.027,0.987,-0.427,-2.625,0.427
0.111,-0.032,0.989,0.488,-2.441,0.427
0.114,-0.039,0.990,0.732,-2.502,0.427
0.116,-0.045,0.991,0.916,-2.625,0.305
0.119,-0.040,0.990,0.977,-2.930,0.366
0.124,-0.031,0.986,1.221,-2.747,0.366
0.124,-0.032,0.989,1.831,-2.747,0.366
0.124,-0.026,0.986,2.136,-2.686,0.732
0.128,-0.007,0.990,2.075,-2.930,1.221
0.132,0.004,0.993,2.197,-3.174,1.221
0.132,0.013,0.989,2.625,-2.869,0.366
0.127,0.012,0.983,4.211,-3.113,-0.854
0.121,0.002,0.976,6.287,-3.540,-1.953
0.115,-0.016,0.974,8.423,-4.639,-2.991
0.107,-0.037,0.979,10.254,-5.432,-3.540
0.104,-0.059,0.985,11.047,-6.165,-3.662
0.110,-0.077,0.994,11.292,-6.958,-3.357
0.113,-0.084,1.005,11.108,-7.690,-2.319
0.119,-0.081,1.016,10.254,-8.362,-0.061
0.148,-0.068,1.029,8.911,-9.460,2.319
0.176,-0.054,1.051,7.324,-11.963,4.456
0.204,-0.064,1.088,5.981,-15.198,7.690
0.245,-0.091,1.152,2.686,-20.752,13.794
0.271,-0.126,1.211,-4.333,-27.893,23.682
0.279,-0.141,1.290,-17.334,-36.377,37.964
0.281,-0.073,1.409,-38.940,-45.898,55.908
0.235,0.035,1.642,-67.017,-54.993,76.904
0.115,0.078,1.922,-101.807,-56.274,101.685
0.008,0.303,2.141,-153.259,-41.077,125.427
-0.029,0.883,2.365,-213.440,-15.991,130.859
-0.019,1.581,2.456,-263.428,17.029,119.812
0.080,2.308,2.447,-289.185,55.420,105.042
0.200,2.953,2.383,-283.630,92.346,81.299
0.301,3.529,2.249,-251.404,123.352,46.570
0.369,3.960,2.050,-201.660,147.156,-4.089
0.413,4.000,1.875,-144.958,161.194,-74.768
0.341,4.000,1.741,-88.501,169.006,-151.428
0.195,3.915,1.565,-41.260,176.270,-225.464
0.050,3.591,1.452,-5.798,179.138,-300.110
-0.223,3.049,1.379,15.076,174.500,-377.258
-0.580,2.406,1.366,20.386,168.518,-442.749
-0.899,1.702,1.341,11.353,168.457,-495.300
-1.216,0.989,1.284,-11.292,172.546,-536.804
-1.476,0.308,1.266,-42.358,179.565,-560.547
-1.827,-0.434,1.213,-87.158,187.927,-566.528
-2.158,-0.902,1.163,-145.935,202.026,-551.697
-2.524,-1.261,1.118,-202.698,222.229,-530.151
-2.750,-1.320,0.906,-246.216,229.980,-505.554
-2.660,-1.058,0.575,-250.916,221.375,-470.947
-2.288,-0.827,0.277,-222.412,191.406,-434.631
-1.874,-0.837,0.050,-176.575,128.357,-404.785
-1.670,-1.152,0.048,-118.408,47.913,-386.230
-1.639,-1.638,0.270,-63.416,-25.818,-374.573
-1.485,-1.991,0.442,-23.987,-66.162,-353.699
-1.180,-2.200,0.661,-2.869,-84.045,-326.660
-0.889,-2.463,0.899,6.042,-85.815,-298.340
-0.768,-2.615,1.076,9.033,-69.946,-259.277
-0.810,-2.496,1.106,27.954,-39.429,-204.285
-0.698,-2.235,0.870,59.875,5.066,-133.362
-0.332,-1.968,0.570,81.482,46.021,-53.467
0.053,-1.619,0.331,68.970,66.956,29.602
0.232,-1.220,0.151,11.536,67.627,105.042
0.257,-0.695,0.014,-63.721,56.946,162.720
0.271,0.016,-0.131,-128.052,45.166,198.242
0.361,0.688,-0.178,-162.292,30.457,201.233
0.549,1.142,-0.066,-160.156,9.094,171.570
0.732,1.284,0.179,-128.357,-17.151,124.756
0.809,1.182,0.452,-79.773,-39.429,74.402
0.790,0.907,0.753,-27.893,-52.490,25.024
0.711,0.527,1.021,12.634,-52.979,-17.761
0.597,0.154,1.153,37.292,-40.710,-47.424
0.536,-0.139,1.157,52.734,-20.935,-62.378
0.555,-0.330,1.043,56.213,1.038,-64.880
0.571,-0.428,0.867,51.025,19.348,-60.486
0.580,-0.448,0.677,43.640,29.846,-50.720
0.640,-0.460,0.474,31.494,32.959,-39.490
0.776,-0.510,0.370,18.433,25.940,-29.724
0.886,-0.561,0.405,5.798,7.996,-18.982
0.827,-0.547,0.511,-6.714,-12.390,-3.967
0.686,-0.504,0.662,-17.273,-27.283,11.597
0.619,-0.413,0.781,-27.222,-33.325,23.926
0.609,-0.286,0.854,-37.720,-31.616,33.447
0.611,-0.161,0.886,-45.715,-25.146,38.513
0.629,-0.067,0.909,-48.096,-16.479,39.490
0.670,0.013,0.895,-46.692,-8.545,36.804
0.720,0.088,0.844,-41.443,-2.747,31.067
0.755,0.119,0.813,-31.128,-0.793,22.217
0.755,0.091,0.800,-20.386,-2.136,14.160
0.766,0.062,0.775,-13.672,-3.235,7.812
0.774,0.029,0.777,-9.705,-5.188,1.160
0.745,0.001,0.779,-8.972,-7.568,-4.272
0.710,-0.026,0.776,-10.132,-8.118,-7.324
0.690,-0.051,0.772,-11.169,-7.507,-11.292
0.677,-0.067,0.773,-10.010,-7.263,-14.221
0.672,-0.104,0.779,-7.690,-6.653,-14.465
0.672,-0.147,0.790,-4.211,-5.859,-12.695
0.665,-0.182,0.801,-1.160,-4.700,-9.644
0.657,-0.199,0.796,-0.793,-3.357,-6.226
0.657,-0.195,0.779,-1.221,-1.648,-3.052
0.653,-0.195,0.747,-3.357,-0.549,0.305
0.664,-0.184,0.707,-7.324,0.183,3.845
0.666,-0.158,0.694,-10.925,-0.854,6.226
0.667,-0.143,0.712,-12.756,-2.502,8.972
0.668,-0.135,0.722,-16.113,-3.418,11.597
0.663,-0.098,0.724,-18.311,-4.211,12.329
0.682,-0.074,0.724,-17.456,-4.456,11.841
0.692,-0.058,0.743,-16.785,-5.371,10.315
0.678,-0.031,0.757,-13.794,-5.554,9.766
0.672,-0.023,0.746,-12.268,-4.333,8.423
0.673,-0.005,0.736,-10.864,-3.418,5.066

0.149,-0.119,1.116,1.648,15.015,-7.751
0.145,-0.173,1.079,-2.441,9.277,-8.179
0.124,-0.160,1.031,-9.644,4.578,-5.493
0.061,-0.157,1.019,-13.123,2.197,-2.808
0.025,-0.149,1.006,-16.968,-0.977,0.427
0.003,-0.133,0.968,-21.179,0.488,3.967
0.002,-0.114,0.941,-22.827,4.150,5.371
0.014,-0.093,0.919,-22.888,7.385,6.775
0.024,-0.069,0.924,-24.292,6.592,8.362
0.035,-0.040,0.933,-23.804,7.812,9.705
0.046,-0.012,0.952,-23.621,7.019,9.949
0.060,0.017,0.969,-21.118,7.080,9.888
0.070,0.039,0.982,-19.653,4.822,8.728
0.069,0.037,1.015,-15.747,3.296,7.446
0.081,0.049,1.031,-13.245,1.526,5.737
0.076,0.062,1.036,-10.803,-0.916,4.211
0.073,0.060,1.042,-7.507,-2.441,2.747
0.079,0.057,1.031,-4.761,-4.761,0.732
0.067,0.048,1.023,-1.892,-5.981,-0.671
0.055,0.030,1.006,0.183,-6.653,-2.075
0.050,0.010,0.991,1.587,-6.775,-3.540
0.042,-0.019,0.980,3.540,-6.775,-4.089
0.038,-0.042,0.967,4.761,-5.859,-3.357
0.041,-0.051,0.966,6.287,-4.822,-2.808
0.043,-0.055,0.977,7.202,-5.005,-2.563
0.048,-0.061,0.991,8.362,-4.333,-2.380
0.057,-0.050,1.008,8.728,-5.005,-2.258
0.068,-0.027,1.027,9.033,-6.287,-2.441
0.092,-0.008,1.045,10.010,-6.104,-3.906
0.114,0.004,1.080,11.047,-8.972,-5.493
0.131,0.011,1.119,13.550,-10.254,-5.981
0.148,-0.001,1.149,14.771,-15.076,-4.517
0.178,-0.086,1.306,14.954,-21.729,1.831
0.214,-0.106,1.434,2.991,-29.114,11.597
0.198,-0.128,1.630,-16.602,-35.400,26.245
0.192,-0.172,1.954,-47.607,-41.077,46.448
0.215,-0.031,2.377,-103.577,-38.574,71.655
0.208,0.329,2.764,-185.547,-17.822,94.360
0.144,0.931,2.865,-285.950,24.170,109.863
0.152,1.779,2.715,-379.395,87.219,106.628
0.384,2.919,2.413,-434.570,156.616,83.435
0.587,3.999,2.134,-422.363,210.999,43.884
0.464,4.000,1.882,-333.313,244.629,-10.925
0.302,4.000,1.474,-185.303,277.405,-75.684
0.232,4.000,0.992,-25.513,296.509,-148.621
0.220,4.000,0.613,97.290,296.143,-232.849
0.261,3.541,0.464,147.400,279.785,-316.895
0.199,2.546,0.495,114.563,244.568,-398.621
-0.137,1.849,0.649,36.255,197.388,-474.731
-0.713,1.283,0.931,-43.091,157.104,-534.180
-1.444,0.476,1.282,-109.375,132.202,-571.777
-2.087,-0.240,1.578,-177.673,132.507,-572.510
-2.859,-0.652,2.062,-239.197,166.077,-548.950
-2.820,-0.711,1.343,-287.842,232.117,-539.673
-2.704,-0.751,1.014,-289.429,238.770,-537.476
-2.667,-0.601,0.738,-238.464,193.542,-516.113
-2.533,-0.638,0.612,-161.743,131.531,-474.976
-2.342,-1.004,0.551,-71.533,63.782,-439.148
-2.322,-1.438,0.578,4.333,-9.155,-418.640
-2.302,-2.133,0.830,66.284,-57.617,-399.841
-2.010,-2.889,1.051,72.693,-65.552,-373.657
-1.383,-3.311,1.067,31.555,-38.513,-333.618
-0.775,-3.325,1.012,-11.597,-12.451,-273.682
-0.552,-3.105,0.866,-32.593,7.080,-196.350
-0.570,-2.696,0.681,-28.198,25.391,-107.300
-0.480,-2.245,0.460,-8.972,43.579,-20.020
-0.235,-1.762,0.264,-5.920,54.565,63.599
-0.007,-1.135,0.148,-30.212,52.124,142.090
0.112,-0.499,0.109,-70.190,41.687,201.233
0.204,0.157,0.075,-109.680,29.602,232.361
0.328,0.738,0.070,-132.690,20.081,233.765
0.497,1.168,0.124,-138.062,5.005,206.299
0.729,1.345,0.219,-130.127,-5.981,158.997
0.960,1.315,0.355,-110.901,-17.578,104.187
1.008,1.161,0.533,-79.041,-28.320,50.903
0.936,0.966,0.679,-48.462,-35.889,1.953
0.867,0.653,0.814,-22.339,-40.466,-42.358
0.765,0.330,0.934,1.648,-42.236,-72.754
0.632,0.091,1.005,24.353,-34.607,-84.778
0.524,-0.123,1.002,38.208,-21.729,-84.534
0.509,-0.320,0.922,43.152,-3.174,-78.064
0.548,-0.443,0.797,36.316,11.597,-66.833
0.602,-0.510,0.638,19.958,23.071,-54.688
0.692,-0.521,0.526,1.404,24.780,-42.786
0.782,-0.486,0.510,-11.841,16.663,-29.663
0.767,-0.435,0.521,-22.095,4.517,-12.756
0.723,-0.390,0.560,-32.410,-7.874,3.174
0.711,-0.315,0.642,-40.894,-15.198,13.062
0.673,-0.222,0.736,-48.828,-20.813,20.020
0.632,-0.150,0.838,-53.711,-19.165,25.757
0.606,-0.085,0.910,-54.138,-13.489,29.297
0.623,-0.006,0.909,-54.993,-4.700,29.114
0.652,0.078,0.863,-49.438,7.019,26.917
0.685,0.134,0.810,-39.612,12.207,23.132
0.740,0.151,0.734,-28.870,17.395,16.724
0.777,0.165,0.661,-19.714,16.785,9.583
0.783,0.174,0.597,-12.634,13.000,1.892
0.791,0.145,0.555,-6.409,8.972,-5.615
0.795,0.105,0.557,-2.930,-1.221,-13.916
0.785,0.039,0.591,2.380,-9.033,-20.813
0.752,-0.026,0.642,4.883,-16.479,-23.437
0.712,-0.103,0.712,6.409,-18.738,-22.644
0.685,-0.164,0.778,3.723,-20.081,-18.677
0.674,-0.163,0.796,-2.258,-16.724,-14.832
0.660,-0.138,0.802,-6.165,-12.207,-11.353
0.647,-0.121,0.797,-8.240,-8.057,-7.446
0.669,-0.120,0.771,-7.568,-2.869,-2.380
0.714,-0.148,0.770,-7.751,0.244,1.892
0.704,-0.169,0.767,-10.986,1.831,6.714
0.682,-0.129,0.752,-19.043,2.136,10.803
0.685,-0.067,0.755,-23.254,5.188,13.611
0.692,-0.029,0.746,-22.766,7.629,16.846
0.696,0.016,0.726,-21.301,6.226,18.250
0.699,0.055,0.694,-16.174,8.240,17.761
0.693,0.072,0.663,-12.329,6.042,15.259
0.699,0.045,0.659,-7.874,6.042,10.803
0.713,0.033,0.652,-7.019,4.456,6.165
0.735,0.026,0.651,-5.432,3.357,1.831
0.724,0.023,0.662,-3.235,0.427,-1.221

0.180,-0.080,1.086,8.057,24.902,-6.897
0.174,-0.070,1.074,8.789,15.381,-7.507
0.139,-0.050,1.056,4.517,5.066,-5.310
0.077,-0.052,1.052,3.784,-0.122,-3.235
0.037,-0.056,1.024,3.418,-3.479,-3.540
0.028,-0.074,0.983,3.479,-2.991,-5.066
0.028,-0.094,0.947,3.967,-2.258,-6.104
0.017,-0.118,0.926,5.676,-0.854,-6.165
0.004,-0.151,0.922,6.775,0.610,-5.127
0.013,-0.172,0.928,6.897,1.404,-3.418
0.026,-0.182,0.948,5.615,3.113,-1.526
0.030,-0.185,0.972,2.502,4.089,-0.061
0.038,-0.169,0.990,-0.610,4.150,1.343
0.050,-0.156,0.999,-2.930,5.127,2.075
0.061,-0.141,1.004,-5.188,3.662,2.502
0.071,-0.124,1.008,-6.104,3.357,2.686
0.064,-0.106,1.015,-6.409,2.136,2.258
0.056,-0.087,1.013,-6.165,0.732,2.136
0.059,-0.072,1.016,-5.066,0.122,1.282
0.066,-0.059,1.013,-2.991,-0.793,0.183
0.066,-0.057,1.001,-0.549,-1.709,-1.160
0.061,-0.062,0.996,1.282,-3.113,-2.502
0.059,-0.067,0.987,2.869,-3.845,-3.113
0.061,-0.074,0.986,3.784,-4.822,-3.052
0.063,-0.079,0.991,3.845,-5.249,-2.930
0.074,-0.080,1.004,4.028,-5.432,-1.709
0.086,-0.086,1.038,4.089,-6.836,-0.061
0.108,-0.091,1.077,2.625,-9.033,1.953
0.124,-0.080,1.122,0.122,-12.390,5.249
0.140,-0.073,1.139,-4.028,-16.052,8.789
0.178,-0.085,1.173,-10.254,-21.057,12.329
0.218,-0.099,1.231,-18.616,-28.503,16.663
0.242,-0.091,1.302,-30.029,-37.170,22.461
0.245,-0.040,1.390,-42.847,-47.180,30.518
0.235,0.066,1.508,-57.800,-58.594,41.138
0.200,0.095,1.787,-74.707,-69.031,55.298
0.101,0.250,2.151,-108.643,-68.787,71.045
0.041,0.719,2.324,-174.744,-48.340,81.421
-0.056,1.131,2.569,-236.755,-17.883,81.360
0.003,1.708,2.605,-288.330,27.649,74.036
0.158,2.359,2.591,-319.153,80.139,55.176
0.185,3.090,2.468,-314.575,130.249,31.250
0.185,3.832,2.149,-274.048,179.565,7.690
0.262,4.000,1.793,-205.627,218.750,-28.870
0.279,4.000,1.424,-126.465,238.281,-78.064
0.215,3.991,1.126,-64.636,243.958,-124.634
0.197,3.599,0.844,-44.678,241.638,-179.199
0.165,3.045,0.673,-66.223,219.360,-250.244
0.077,2.500,0.664,-113.892,180.054,-325.806
-0.044,2.167,0.743,-171.204,135.010,-399.841
-0.430,1.986,0.999,-210.083,81.787,-473.206
-1.201,1.503,1.462,-215.210,30.090,-537.842
-2.173,0.664,1.895,-199.951,0.488,-580.322
-3.027,-0.197,2.176,-177.673,8.606,-585.876
-3.803,-0.862,2.217,-153.015,53.101,-562.256
-3.746,-1.374,1.741,-117.676,113.708,-520.142
-3.316,-1.593,1.414,-67.627,136.902,-472.229
-2.761,-1.655,0.999,-40.955,135.071,-443.054
-2.299,-2.064,0.702,-27.527,111.145,-432.068
-1.951,-2.510,0.450,-15.137,80.933,-412.537
-1.560,-2.868,0.311,-7.935,56.091,-382.446
-0.984,-3.051,0.195,-9.644,34.851,-338.257
-0.341,-3.160,0.239,-19.165,10.559,-279.602
0.080,-3.176,0.522,-25.574,-18.311,-210.937
0.003,-2.855,0.735,-20.081,-35.156,-134.399
-0.394,-2.227,0.735,-3.845,-31.189,-48.035
-0.464,-1.610,0.585,8.728,-5.005,34.546
-0.228,-1.115,0.443,-4.150,19.714,100.403
-0.027,-0.571,0.322,-42.908,32.471,146.729
0.040,0.104,0.150,-85.571,37.720,177.124
0.166,0.747,0.008,-113.159,33.752,184.753
0.450,1.202,-0.034,-123.901,20.508,163.391
0.704,1.409,0.039,-111.206,1.282,123.352
0.828,1.342,0.214,-84.839,-24.353,74.280
0.831,1.125,0.426,-49.194,-42.603,24.170
0.771,0.919,0.652,-13.672,-54.993,-19.775
0.646,0.608,0.868,16.174,-54.810,-54.443
0.548,0.279,0.993,32.471,-47.852,-75.317
0.514,0.009,1.065,45.471,-31.189,-82.214
0.537,-0.160,1.042,43.762,-13.916,-76.721
0.573,-0.246,0.929,30.945,5.798,-66.833
0.585,-0.301,0.797,17.334,16.968,-56.335
0.636,-0.307,0.688,3.662,23.437,-44.067
0.697,-0.280,0.620,-6.775,22.766,-30.884
0.723,-0.236,0.598,-12.207,14.832,-17.578
0.715,-0.190,0.618,-15.015,4.944,-3.845
0.673,-0.174,0.646,-21.851,-2.319,8.057
0.633,-0.136,0.696,-30.518,-5.493,15.076
0.629,-0.061,0.730,-41.870,-7.751,17.395
0.654,0.023,0.747,-51.758,-6.714,18.921
0.673,0.120,0.763,-58.167,-6.714,20.264
0.678,0.213,0.779,-57.983,-6.531,21.484
0.667,0.283,0.789,-51.697,-5.127,21.606
0.677,0.312,0.803,-44.006,-5.188,18.066
0.694,0.318,0.811,-34.912,-1.831,11.719
0.693,0.347,0.803,-26.062,-2.380,5.005
0.692,0.357,0.773,-14.648,-0.671,-1.282
0.715,0.335,0.748,-2.625,-0.183,-5.798
0.719,0.295,0.742,5.127,-3.662,-10.620
0.705,0.219,0.761,11.353,-3.601,-15.930
0.705,0.154,0.763,10.803,-5.859,-20.996
0.706,0.104,0.757,9.827,-4.639,-25.757
0.708,0.061,0.765,6.042,-7.385,-29.663
0.699,0.048,0.777,4.700,-9.155,-32.349
0.669,0.038,0.799,7.324,-10.925,-31.555
0.642,0.022,0.815,9.888,-12.878,-28.687
0.633,0.001,0.813,15.015,-10.376,-24.048
0.627,-0.039,0.805,16.785,-10.193,-18.738
0.638,-0.074,0.801,12.695,-8.301,-12.512
0.639,-0.059,0.792,5.493,-3.113,-6.531
0.646,-0.020,0.776,-1.282,1.099,-0.610
0.662,0.011,0.767,-6.592,1.709,3.357
0.664,0.037,0.768,-9.216,0.427,5.249
0.648,0.067,0.768,-9.583,-1.038,5.920
0.638,0.096,0.754,-7.324,0.122,4.822
0.638,0.102,0.734,-1.831,2.258,3.052
0.650,0.099,0.712,0.671,1.648,1.099
0.667,0.103,0.675,2.197,2.808,-0.793
0.689,0.093,0.662,1.221,2.808,-2.930

-0.043,-0.273,0.890,4.395,0.916,-0.488
-0.057,-0.235,0.912,-1.343,2.869,2.747
-0.052,-0.189,0.933,-4.883,5.737,3.906
-0.038,-0.150,0.953,-7.568,7.568,4.395
-0.021,-0.120,0.968,-9.949,8.484,5.432
0.003,-0.078,0.985,-12.024,8.911,5.981
0.028,-0.032,1.002,-12.451,7.507,5.615
0.042,0.002,1.026,-10.803,5.920,4.211
0.056,0.027,1.039,-8.240,3.784,1.465
0.060,0.028,1.044,-3.906,1.526,-2.136
0.045,0.008,1.044,1.526,-0.854,-5.249
0.041,-0.019,1.030,5.798,-2.197,-7.263
0.045,-0.055,1.023,9.338,-3.662,-8.545
0.053,-0.092,1.022,10.925,-5.615,-7.874
0.067,-0.108,1.036,9.888,-7.812,-6.226
0.081,-0.099,1.057,7.935,-10.681,-3.784
0.092,-0.081,1.069,5.554,-13.428,-1.282
0.097,-0.063,1.067,3.662,-15.625,0.916
0.092,-0.046,1.064,3.723,-18.188,2.136
0.076,-0.029,1.062,4.761,-21.362,2.686
0.058,-0.017,1.051,6.897,-23.987,2.502
0.037,-0.026,1.050,9.583,-26.184,1.770
0.036,-0.051,1.078,12.817,-29.602,2.319
0.043,-0.078,1.124,12.939,-34.058,5.676
0.023,-0.094,1.163,6.958,-37.292,10.681
0.007,-0.131,1.188,-5.432,-39.673,14.771
0.013,-0.176,1.237,-20.264,-41.138,19.287
-0.002,-0.180,1.342,-37.476,-41.382,26.611
-0.041,-0.145,1.385,-59.204,-35.156,33.813
-0.028,0.041,1.422,-94.055,-22.766,38.269
-0.008,0.279,1.489,-129.761,-8.789,36.804
0.044,0.485,1.581,-151.245,2.258,34.180
0.116,0.697,1.636,-164.551,12.512,33.630
0.167,0.947,1.688,-167.847,19.409,34.851
0.183,1.200,1.762,-158.508,25.574,34.241
0.188,1.425,1.833,-142.578,34.424,26.245
0.204,1.597,1.889,-126.099,47.180,13.428
0.212,1.707,1.932,-115.051,62.622,-2.136
0.193,1.859,1.946,-112.305,79.834,-19.348
0.164,2.089,1.913,-112.183,100.891,-36.682
0.129,2.234,1.790,-115.051,124.756,-56.885
0.146,2.259,1.648,-121.094,144.836,-84.961
0.194,2.255,1.503,-127.075,159.119,-116.089
0.156,2.386,1.349,-131.226,167.114,-140.686
-0.005,2.502,1.185,-133.240,173.462,-158.020
-0.124,2.527,1.005,-137.634,185.425,-175.598
-0.124,2.414,0.837,-148.193,192.444,-203.979
-0.174,2.233,0.697,-167.358,184.265,-246.277
-0.220,2.015,0.615,-192.078,164.917,-294.312
-0.324,1.793,0.675,-213.867,130.554,-351.074
-0.613,1.514,0.968,-220.276,81.360,-414.734
-1.173,1.193,1.351,-200.623,29.541,-471.619
-2.197,0.637,2.084,-160.889,-3.906,-508.850
-2.689,0.298,1.739,-122.070,17.090,-521.179
-2.796,-0.354,1.901,-69.031,26.001,-523.682
-2.666,-1.389,2.116,-26.733,9.338,-527.100
-2.567,-2.339,2.289,-39.001,7.446,-501.282
-2.439,-2.647,2.205,-75.928,18.982,-456.543
-2.191,-2.469,1.888,-97.351,52.612,-406.555
-1.806,-2.307,1.442,-82.947,99.304,-356.079
-1.270,-2.334,0.909,-37.109,146.118,-311.584
-0.614,-2.443,0.461,24.292,175.842,-281.921
-0.074,-2.506,0.230,86.426,171.692,-251.831
0.175,-2.386,0.094,133.972,148.987,-199.524
0.180,-2.072,-0.067,158.142,124.695,-117.737
0.154,-1.724,-0.187,140.381,99.243,-25.452
0.182,-1.338,-0.255,75.195,76.172,56.152
0.211,-0.785,-0.296,-12.268,56.152,115.784
0.272,-0.146,-0.297,-85.205,31.250,150.269
0.394,0.411,-0.194,-123.474,4.150,157.898
0.528,0.808,-0.026,-125.977,-18.433,145.203
0.599,1.010,0.166,-102.722,-40.771,116.150
0.617,1.007,0.379,-62.500,-58.228,71.167
0.568,0.846,0.618,-12.085,-64.087,20.874
0.506,0.626,0.825,27.100,-59.143,-21.118
0.507,0.426,0.909,50.537,-37.964,-51.025
0.582,0.209,0.880,60.608,-17.944,-71.838
0.663,-0.009,0.812,64.331,-2.319,-84.473
0.695,-0.180,0.729,61.279,9.583,-87.524
0.689,-0.276,0.615,49.194,14.221,-81.726
0.685,-0.298,0.504,37.476,14.221,-71.594
0.726,-0.285,0.430,29.907,10.437,-58.228
0.758,-0.299,0.389,22.217,2.930,-45.227
0.775,-0.310,0.420,13.916,-7.019,-33.325
0.747,-0.282,0.472,1.404,-17.456,-20.752
0.702,-0.244,0.538,-13.245,-27.344,-10.559
0.681,-0.189,0.620,-22.705,-32.898,-4.578
0.689,-0.138,0.688,-29.785,-33.447,0.549
0.686,-0.065,0.737,-32.288,-30.151,6.348
0.695,0.018,0.761,-32.227,-25.940,13.123
0.713,0.084,0.763,-33.386,-20.874,16.907
0.699,0.159,0.763,-32.166,-19.470,16.418
0.708,0.188,0.751,-26.428,-14.465,12.207
0.735,0.195,0.732,-20.752,-10.925,5.188
0.753,0.213,0.715,-14.771,-11.047,-2.808
0.755,0.213,0.691,-7.996,-11.841,-10.254
0.743,0.188,0.671,0.183,-10.986,-17.395
0.735,0.146,0.672,9.155,-11.780,-23.376
0.724,0.056,0.690,14.282,-13.367,-27.954
0.691,-0.047,0.719,15.320,-14.709,-30.090
0.655,-0.124,0.741,12.207,-15.381,-29.968
0.644,-0.171,0.743,7.751,-12.146,-27.405
0.648,-0.186,0.733,4.700,-8.545,-22.278
0.658,-0.187,0.709,-0.671,-8.911,-16.296
0.681,-0.183,0.682,-5.005,-6.775,-11.230
0.712,-0.150,0.668,-6.714,-5.127,-7.751
0.742,-0.124,0.672,-7.568,-7.446,-4.944
0.736,-0.115,0.706,-8.423,-12.695,-1.038
0.712,-0.096,0.743,-9.277,-15.137,3.296
0.699,-0.079,0.764,-9.277,-12.878,6.958
0.682,-0.054,0.792,-11.353,-12.878,9.705
0.676,-0.024,0.803,-13.184,-9.521,10.864
0.686,-0.006,0.795,-12.085,-4.700,10.986
0.696,0.013,0.789,-10.437,-3.418,9.766
0.704,0.038,0.772,-9.033,-2.502,7.446
0.713,0.050,0.749,-5.615,0.305,4.333
0.731,0.047,0.711,-0.122,3.662,0.610
0.751,0.025,0.684,3.296,1.587,-3.479
0.739,0.010,0.689,6.042,0.488,-7.385

0.113,-0.147,1.058,9.399,21.118,-3.662
0.005,-0.169,1.099,11.353,2.808,-0.244
-0.038,-0.178,1.094,8.850,-3.052,-3.540
-0.060,-0.204,1.064,7.874,-4.517,-5.859
-0.068,-0.215,1.003,5.615,-3.662,-4.456
-0.069,-0.207,0.944,5.432,-0.122,-2.197
-0.072,-0.199,0.924,4.395,-0.732,-1.282
-0.082,-0.204,0.924,3.845,1.709,-1.526
-0.093,-0.204,0.939,2.686,2.869,-1.099
-0.089,-0.199,0.954,1.892,5.005,-0.305
-0.075,-0.196,0.961,0.000,8.057,0.244
-0.060,-0.191,0.970,-2.808,7.812,0.916
-0.043,-0.186,0.985,-4.578,8.484,1.160
-0.036,-0.178,1.001,-6.714,6.836,1.404
-0.029,-0.170,1.016,-7.996,4.578,1.587
-0.021,-0.158,1.028,-9.338,2.136,0.977
-0.019,-0.146,1.033,-8.423,1.343,0.732
-0.018,-0.144,1.039,-9.521,-3.113,0.610
-0.025,-0.149,1.044,-7.935,-3.723,0.122
-0.031,-0.150,1.038,-6.714,-6.592,0.122
-0.032,-0.159,1.031,-5.371,-7.446,0.122
-0.024,-0.178,1.032,-5.554,-9.521,0.549
-0.015,-0.197,1.036,-6.409,-10.864,2.197
-0.001,-0.201,1.059,-10.925,-15.564,4.761
0.012,-0.171,1.093,-14.648,-17.578,8.606
0.018,-0.123,1.124,-20.935,-23.437,12.512
0.024,-0.087,1.144,-23.682,-25.208,14.832
0.037,-0.063,1.156,-25.696,-30.457,17.578
0.049,-0.037,1.182,-27.649,-35.583,20.081
0.058,-0.019,1.231,-31.494,-42.114,22.522
0.060,-0.007,1.305,-38.757,-47.974,24.536
0.049,0.016,1.396,-52.551,-54.199,26.611
-0.016,0.010,1.534,-70.801,-55.786,30.640
-0.103,0.035,1.710,-96.497,-48.645,37.537
-0.131,0.249,1.873,-129.395,-24.292,41.077
-0.136,0.535,2.034,-172.119,4.883,33.630
-0.101,0.809,2.162,-208.496,35.583,25.574
0.013,1.128,2.208,-233.276,66.101,18.860
0.127,1.484,2.218,-241.638,91.431,9.583
0.151,1.827,2.188,-232.422,110.107,-1.221
0.116,2.121,2.122,-203.430,132.263,-15.137
0.094,2.356,2.037,-160.156,157.043,-34.546
0.005,2.529,1.903,-112.427,185.181,-57.190
-0.094,2.741,1.721,-67.078,217.957,-79.651
-0.171,2.813,1.496,-25.208,260.010,-97.107
-0.189,2.693,1.144,-7.568,305.847,-115.540
-0.122,2.493,0.782,-14.709,340.576,-141.113
0.021,2.249,0.478,-46.631,356.628,-175.049
0.228,1.969,0.215,-106.018,344.482,-217.041
0.436,1.709,0.039,-172.668,308.167,-268.188
0.416,1.553,0.061,-228.210,238.098,-326.355
0.082,1.450,0.324,-257.202,156.555,-385.498
-0.611,1.332,0.833,-254.944,80.627,-441.467
-1.945,0.905,1.945,-239.136,43.823,-487.610
-2.073,0.870,1.428,-229.309,84.351,-517.456
-2.400,0.629,1.395,-125.244,43.762,-549.316
-2.714,-0.182,1.486,-34.668,1.831,-564.819
-2.847,-1.266,1.716,10.803,-15.625,-551.086
-2.775,-2.240,1.803,5.310,-20.142,-516.113
-2.494,-2.815,1.899,-23.010,-23.987,-479.248
-2.125,-2.796,1.892,-35.645,-9.888,-429.626
-2.002,-2.636,1.601,-22.217,31.372,-367.737
-1.746,-2.646,1.004,20.325,90.088,-305.969
-1.145,-2.672,0.403,71.533,141.479,-247.009
-0.378,-2.542,-0.024,92.468,162.903,-182.983
0.205,-2.151,-0.266,75.073,148.010,-100.098
0.484,-1.635,-0.381,29.419,109.497,-6.592
0.532,-1.110,-0.322,-26.489,59.937,77.087
0.413,-0.530,-0.110,-75.867,13.611,138.184
0.298,0.047,0.121,-109.558,-17.273,171.753
0.302,0.515,0.334,-124.756,-33.691,176.819
0.377,0.844,0.476,-120.056,-42.725,157.349
0.493,1.000,0.564,-101.990,-43.152,117.920
0.566,0.993,0.661,-73.547,-39.124,67.383
0.643,0.890,0.761,-41.077,-34.851,17.822
0.718,0.685,0.852,-12.512,-30.090,-26.123
0.745,0.464,0.893,15.503,-24.048,-60.791
0.707,0.177,0.904,42.419,-18.921,-84.229
0.633,-0.111,0.896,59.021,-16.724,-96.375
0.582,-0.368,0.867,67.261,-9.399,-96.863
0.569,-0.580,0.802,61.584,-0.854,-85.632
0.578,-0.682,0.712,40.405,7.080,-65.430
0.627,-0.629,0.578,13.916,13.062,-40.344
0.714,-0.540,0.500,-12.573,10.742,-18.982
0.741,-0.443,0.507,-30.273,2.991,-0.488
0.706,-0.354,0.561,-40.039,-9.399,13.184
0.668,-0.280,0.629,-42.175,-17.090,20.020
0.639,-0.215,0.701,-44.678,-23.987,22.095
0.621,-0.172,0.773,-43.701,-23.254,21.790
0.604,-0.135,0.841,-41.687,-21.667,21.973
0.571,-0.054,0.850,-37.720,-15.442,22.217
0.587,0.028,0.797,-31.799,-7.263,24.414
0.647,0.082,0.740,-29.419,-2.502,25.024
0.710,0.102,0.690,-26.550,1.343,22.766
0.771,0.111,0.672,-27.222,-1.709,16.968
0.794,0.119,0.696,-24.414,-5.249,9.827
0.776,0.117,0.716,-19.470,-10.437,2.563
0.741,0.126,0.746,-12.573,-15.564,-4.089
0.701,0.122,0.792,-4.517,-17.334,-9.705
0.670,0.097,0.810,4.272,-15.442,-14.221
0.660,0.073,0.802,9.888,-15.015,-20.630
0.659,-0.007,0.802,16.907,-11.841,-26.917
0.649,-0.093,0.804,19.226,-10.498,-29.785
0.662,-0.170,0.809,20.447,-6.470,-29.358
0.664,-0.214,0.792,16.418,-5.981,-25.696
0.662,-0.219,0.766,10.620,-4.333,-20.996
0.666,-0.222,0.745,7.141,-3.113,-15.869
0.653,-0.219,0.736,2.991,-6.409,-11.719
0.637,-0.203,0.742,0.305,-7.812,-8.118
0.635,-0.194,0.758,0.427,-7.141,-3.357
0.612,-0.179,0.778,-1.587,-7.935,2.441
0.597,-0.141,0.775,-5.859,-7.751,6.653
0.630,-0.115,0.750,-6.653,-2.136,8.118
0.648,-0.067,0.734,-7.141,-1.770,7.812
0.655,-0.023,0.718,-6.470,-1.282,6.897
0.656,-0.006,0.702,-3.052,-1.038,5.066
0.652,-0.010,0.692,-0.366,-3.418,1.709
0.651,-0.016,0.690,3.601,-3.418,-1.160
0.652,-0.036,0.691,2.869,-6.531,-3.357

-0.320,-0.015,1.764,36.438,1.648,1.709
-0.228,0.000,1.450,24.536,40.283,-5.737
0.084,-0.175,1.249,15.747,46.387,-25.024
0.269,-0.229,1.115,14.587,41.260,-22.888
0.219,-0.185,1.044,10.925,24.719,-9.216
0.086,-0.166,1.104,8.240,6.836,-3.296
0.024,-0.176,1.167,5.859,-4.150,-3.479
0.018,-0.158,1.148,-0.610,-8.423,-4.150
0.020,-0.116,1.069,-3.235,-4.578,-3.113
0.012,-0.091,0.997,-1.770,-2.930,-2.075
0.001,-0.092,0.956,-0.061,-4.395,-3.662
-0.023,-0.119,0.946,4.272,-3.601,-5.493
-0.040,-0.138,0.942,6.409,-3.601,-6.042
-0.047,-0.155,0.948,7.263,-1.953,-5.920
-0.043,-0.174,0.946,7.751,1.709,-4.822
-0.044,-0.186,0.961,6.287,2.136,-3.540
-0.044,-0.194,0.978,5.676,5.493,-2.502
-0.038,-0.200,0.990,2.075,5.005,-1.282
-0.022,-0.187,0.992,-0.977,6.775,-0.610
-0.002,-0.165,1.000,-1.953,7.507,0.916
0.008,-0.138,1.008,-2.991,6.226,0.671
0.016,-0.111,1.016,-0.977,4.944,0.427
0.025,-0.103,1.038,0.305,0.305,-0.488
0.028,-0.112,1.067,4.333,-1.465,-1.465
0.030,-0.124,1.090,6.592,-5.920,-0.366
0.043,-0.138,1.111,4.639,-11.475,0.854
0.068,-0.144,1.130,2.808,-14.282,3.601
0.081,-0.131,1.145,-2.930,-22.156,7.812
0.086,-0.115,1.166,-9.399,-28.748,10.864
0.080,-0.110,1.220,-14.465,-35.767,14.526
0.042,-0.103,1.298,-20.569,-43.335,19.104
-0.002,-0.087,1.376,-26.917,-48.218,25.085
-0.048,-0.089,1.518,-35.400,-48.279,30.762
-0.091,-0.064,1.686,-48.706,-45.471,36.072
-0.113,-0.078,1.791,-74.219,-31.616,40.833
-0.089,0.170,1.926,-117.676,-16.052,46.448
-0.041,0.561,2.138,-156.128,3.418,48.462
0.026,0.960,2.329,-189.880,22.705,48.706
0.013,1.260,2.365,-223.206,47.791,45.898
-0.004,1.616,2.399,-245.483,74.463,34.180
-0.026,2.087,2.412,-253.113,102.112,13.916
-0.039,2.557,2.292,-242.126,137.451,-11.536
0.047,2.900,2.125,-205.688,169.250,-45.227
0.136,3.016,1.928,-148.865,192.200,-87.158
0.193,2.903,1.709,-84.778,206.116,-127.563
0.258,2.582,1.522,-31.128,213.745,-162.903
0.281,2.208,1.348,-3.052,215.515,-199.707
0.201,1.905,1.201,2.991,214.111,-236.267
-0.002,1.691,1.092,-9.827,215.271,-264.587
-0.193,1.528,1.007,-37.964,221.741,-285.278
-0.313,1.365,0.888,-71.899,235.107,-306.702
-0.434,1.237,0.766,-106.201,241.943,-334.656
-0.570,1.084,0.701,-132.141,240.723,-368.042
-0.750,0.775,0.654,-151.306,226.013,-407.715
-1.057,0.223,0.706,-168.213,192.139,-448.914
-1.584,-0.220,0.907,-187.683,151.428,-470.398
-2.333,-0.562,1.384,-193.359,128.540,-462.097
-2.339,-0.776,1.187,-180.176,128.418,-432.312
-2.274,-1.226,1.414,-145.325,78.735,-396.790
-2.019,-1.564,1.606,-113.892,40.649,-356.201
-1.886,-1.885,1.590,-116.760,24.353,-319.946
-1.788,-2.076,1.528,-126.709,21.606,-302.368
-1.568,-1.937,1.338,-114.258,38.818,-301.453
-1.134,-1.993,1.017,-65.247,71.594,-305.725
-0.586,-2.268,0.714,8.301,106.812,-299.927
-0.211,-2.471,0.467,91.553,121.033,-275.818
-0.097,-2.489,0.277,163.086,112.366,-223.389
-0.026,-2.304,0.098,193.604,99.670,-134.033
0.142,-2.088,-0.079,151.367,85.754,-31.860
0.256,-1.641,-0.158,54.993,66.223,58.167
0.173,-0.917,-0.224,-48.035,42.664,130.432
0.050,-0.109,-0.236,-120.117,18.494,176.758
0.085,0.586,-0.184,-150.269,1.953,189.331
0.350,1.111,-0.100,-149.231,-9.949,174.377
0.668,1.351,0.030,-128.601,-23.743,133.423
0.805,1.307,0.244,-87.219,-43.396,75.378
0.788,1.077,0.535,-36.011,-63.660,14.404
0.684,0.795,0.826,9.949,-69.580,-32.837
0.564,0.416,1.002,44.006,-58.960,-64.453
0.501,0.012,1.063,62.500,-39.246,-81.482
0.489,-0.260,0.991,62.317,-15.137,-84.839
0.520,-0.441,0.844,51.514,6.531,-79.407
0.611,-0.539,0.673,32.471,23.132,-67.261
0.745,-0.541,0.512,12.207,29.358,-50.964
0.842,-0.486,0.443,-1.526,23.071,-32.776
0.849,-0.401,0.441,-8.484,9.644,-15.076
0.824,-0.310,0.498,-10.742,-4.089,-2.441
0.747,-0.238,0.584,-11.719,-14.709,7.751
0.693,-0.221,0.658,-16.296,-20.264,11.719
0.699,-0.199,0.725,-19.714,-20.630,8.118
0.689,-0.164,0.768,-20.020,-18.433,4.333
0.663,-0.148,0.798,-19.714,-14.648,4.211
0.668,-0.129,0.787,-18.066,-8.301,6.165
0.693,-0.098,0.748,-15.686,-0.610,9.460
0.733,-0.061,0.695,-15.320,4.761,11.902
0.776,-0.009,0.644,-15.686,6.226,12.329
0.794,0.039,0.610,-13.245,5.859,11.414
0.797,0.050,0.599,-10.620,1.831,9.949
0.784,0.064,0.616,-8.972,-3.784,7.324
0.773,0.085,0.656,-5.920,-8.301,3.784
0.761,0.082,0.677,-3.662,-11.047,-1.099
0.751,0.067,0.694,-0.366,-12.207,-7.202
0.738,0.039,0.719,4.517,-13.428,-13.977
0.711,-0.010,0.754,9.460,-14.587,-19.470
0.678,-0.073,0.766,12.634,-13.672,-21.362
0.649,-0.133,0.749,11.902,-10.864,-20.996
0.650,-0.164,0.719,9.094,-6.958,-19.592
0.680,-0.181,0.690,7.202,-4.150,-18.188
0.707,-0.201,0.666,6.592,-1.892,-15.381
0.721,-0.209,0.652,6.042,-3.296,-10.498
0.724,-0.202,0.647,5.188,-6.714,-4.883
0.735,-0.203,0.657,2.197,-11.047,0.671
0.743,-0.187,0.683,-2.319,-14.709,5.127
0.723,-0.172,0.723,-6.775,-16.602,9.033
0.699,-0.146,0.762,-10.803,-13.489,13.062
0.683,-0.112,0.798,-13.550,-11.475,17.456
0.658,-0.082,0.818,-17.029,-9.460,20.264
0.654,-0.032,0.797,-19.836,-3.113,19.775
0.682,0.023,0.749,-17.578,4.272,16.541

-0.043,-0.376,0.992,7.202,6.226,-5.493
-0.028,-0.328,0.960,-1.709,7.751,-1.343
-0.024,-0.272,0.947,-7.446,9.216,2.136
-0.035,-0.222,0.949,-10.071,9.399,4.272
-0.034,-0.180,0.952,-11.597,10.803,4.944
-0.025,-0.148,0.954,-11.658,11.780,5.432
-0.004,-0.122,0.955,-10.986,13.123,5.249
0.017,-0.105,0.963,-9.338,12.329,3.967
0.027,-0.098,0.979,-6.592,10.193,2.075
0.034,-0.098,0.998,-2.380,9.094,0.488
0.043,-0.108,1.010,-0.671,4.517,-1.404
0.055,-0.125,1.012,2.258,4.028,-2.808
0.059,-0.158,1.024,2.686,0.305,-3.296
0.054,-0.173,1.045,2.258,-2.502,-3.601
0.040,-0.184,1.053,3.052,-2.197,-2.441
0.036,-0.198,1.056,0.671,-5.493,-0.977
0.042,-0.206,1.058,-0.061,-4.883,0.122
0.040,-0.202,1.066,-1.587,-7.446,1.770
0.034,-0.179,1.054,-2.502,-8.240,3.418
0.040,-0.153,1.032,-2.563,-9.644,4.272
0.046,-0.139,1.020,0.000,-10.315,3.662
0.035,-0.129,1.013,3.418,-11.475,2.441
0.015,-0.121,1.005,6.836,-12.695,1.831
0.019,-0.123,0.992,9.094,-13.916,1.892
0.017,-0.136,0.992,10.620,-15.015,2.258
0.007,-0.160,1.001,10.498,-16.663,3.235
0.017,-0.184,1.010,7.812,-18.311,5.920
0.040,-0.211,1.037,2.563,-20.325,9.705
0.050,-0.201,1.083,-4.028,-24.048,14.954
0.068,-0.187,1.120,-11.597,-27.466,21.240
0.099,-0.188,1.155,-20.203,-31.982,26.917
0.116,-0.180,1.206,-28.809,-37.964,33.264
0.120,-0.142,1.274,-39.246,-44.800,40.710
0.104,-0.152,1.444,-52.917,-50.354,48.279
0.081,-0.163,1.628,-77.942,-53.467,57.129
0.033,-0.106,1.942,-124.756,-52.246,66.833
-0.005,0.222,2.174,-193.909,-40.771,77.332
-0.065,0.671,2.424,-258.484,-21.179,89.783
-0.061,1.317,2.539,-314.453,8.972,97.351
-0.006,1.984,2.533,-346.375,51.636,86.182
0.062,2.486,2.497,-343.506,96.985,58.716
0.106,2.987,2.384,-312.683,142.395,27.100
0.043,3.454,2.201,-260.010,187.012,-3.479
-0.102,3.595,1.891,-199.097,231.934,-35.645
-0.261,3.679,1.565,-145.630,274.353,-63.660
-0.306,3.424,1.109,-112.122,315.491,-97.290
-0.250,3.070,0.747,-106.506,336.731,-142.883
-0.190,2.742,0.425,-127.686,334.290,-193.359
-0.009,2.397,0.140,-173.096,309.692,-250.610
0.164,2.065,0.004,-223.389,256.287,-323.608
0.203,1.821,0.059,-263.062,177.856,-408.020
-0.180,1.432,0.436,-272.583,84.839,-492.126
-1.092,0.673,1.092,-268.677,-6.470,-560.486
-3.462,-0.525,3.696,-275.696,-49.438,-593.018
-3.202,-0.453,2.024,-306.702,50.476,-571.106
-3.203,-0.613,2.076,-224.976,44.495,-541.870
-2.415,-0.967,1.931,-122.314,25.818,-505.127
-1.960,-1.484,1.779,-97.717,17.578,-444.702
-1.848,-1.647,1.678,-96.619,-20.203,-406.494
-1.941,-1.707,1.660,-90.637,-52.795,-398.071
-1.899,-1.748,1.603,-74.890,-48.706,-398.193
-1.534,-1.923,1.314,-46.082,-18.921,-394.714
-0.777,-2.319,1.022,-1.221,15.198,-383.484
-0.149,-2.658,0.829,50.964,30.640,-366.089
-0.156,-2.579,0.680,119.995,24.841,-326.050
-0.305,-2.350,0.466,191.223,16.296,-247.375
-0.103,-2.248,0.281,222.778,17.151,-138.611
0.118,-2.050,0.190,181.885,18.433,-20.935
0.125,-1.703,0.171,78.308,9.460,86.182
0.007,-1.017,0.107,-42.053,2.258,171.387
-0.105,-0.220,0.036,-140.625,0.000,236.938
0.023,0.504,0.013,-193.420,1.709,265.747
0.336,1.044,0.051,-199.097,3.235,255.493
0.661,1.333,0.136,-176.697,-7.874,211.975
0.834,1.429,0.308,-130.066,-23.743,148.315
0.861,1.374,0.544,-70.496,-39.917,80.139
0.833,1.168,0.785,-16.174,-50.415,16.113
0.778,0.911,0.965,30.212,-48.401,-33.630
0.700,0.627,1.045,64.697,-40.405,-68.237
0.606,0.318,1.039,86.304,-23.376,-91.736
0.513,0.063,0.963,88.135,-4.395,-102.783
0.503,-0.126,0.817,75.073,16.479,-104.919
0.571,-0.330,0.637,56.091,33.569,-102.478
0.691,-0.452,0.483,33.997,38.818,-94.421
0.751,-0.481,0.395,17.578,32.532,-78.430
0.735,-0.482,0.381,7.874,20.081,-58.594
0.733,-0.490,0.420,2.625,5.371,-37.476
0.679,-0.445,0.463,-4.578,-8.423,-12.329
0.673,-0.393,0.534,-16.724,-19.043,6.409
0.654,-0.338,0.617,-32.288,-21.118,23.560
0.646,-0.242,0.709,-51.147,-20.569,38.635
0.659,-0.109,0.774,-63.965,-16.235,46.875
0.663,0.027,0.787,-71.533,-12.268,51.392
0.668,0.144,0.779,-68.298,-6.653,52.002
0.688,0.223,0.771,-59.326,-4.822,48.462
0.689,0.275,0.748,-44.800,-0.122,42.542
0.679,0.302,0.709,-32.715,0.244,35.461
0.691,0.276,0.658,-22.522,2.808,25.391
0.731,0.239,0.629,-16.052,2.441,15.259
0.770,0.224,0.621,-12.207,0.366,6.531
0.780,0.209,0.617,-9.888,-4.700,-0.244
0.761,0.179,0.656,-6.226,-9.460,-6.042
0.734,0.173,0.694,-2.808,-13.733,-10.498
0.708,0.153,0.725,-0.488,-14.648,-15.259
0.690,0.113,0.764,1.282,-13.794,-20.996
0.674,0.076,0.773,4.211,-11.353,-25.330
0.677,0.046,0.754,7.996,-7.202,-26.978
0.692,0.004,0.736,11.292,-5.432,-26.306
0.712,-0.081,0.725,14.465,-3.479,-23.743
0.742,-0.148,0.725,12.329,-3.296,-18.921
0.758,-0.185,0.733,6.409,-3.967,-11.719
0.736,-0.154,0.737,-2.747,-4.700,-3.540
0.711,-0.095,0.732,-8.911,-4.883,6.042
0.695,-0.066,0.736,-12.146,-3.967,13.550
0.675,-0.020,0.741,-15.381,-2.930,19.775
0.679,0.016,0.727,-17.456,0.671,22.705
0.698,0.045,0.694,-20.264,2.747,22.583
0.731,0.071,0.672,-20.752,5.371,20.569
0.764,0.100,0.667,-20.447,3.479,16.907

-0.130,-0.236,1.427,11.841,-28.076,3.052
-0.238,-0.121,1.582,-6.592,-5.127,5.859
-0.109,0.128,1.426,-9.705,23.987,6.775
0.061,-0.052,1.383,-9.338,31.555,-6.958
0.214,-0.116,1.289,-10.803,28.809,-10.071
0.206,-0.071,1.184,-10.193,23.437,-3.174
0.153,-0.046,1.137,-5.615,13.733,-0.427
0.108,-0.076,1.145,-2.747,-0.061,-1.709
0.076,-0.097,1.137,-1.160,-6.775,-3.601
0.056,-0.098,1.086,0.183,-7.629,-3.723
0.039,-0.107,1.033,-0.366,-10.132,-4.333
0.017,-0.119,0.997,1.343,-9.094,-5.310
-0.004,-0.130,0.968,0.793,-10.864,-5.127
-0.019,-0.139,0.949,0.305,-9.521,-5.127
-0.033,-0.148,0.936,1.099,-8.118,-4.211
-0.046,-0.155,0.923,1.526,-6.287,-3.784
-0.052,-0.159,0.915,2.136,-4.700,-3.235
-0.040,-0.163,0.918,2.869,-1.892,-3.723
-0.019,-0.182,0.942,3.113,-1.465,-3.723
0.014,-0.191,0.985,1.465,-1.221,-3.235
0.031,-0.164,1.027,-2.502,-3.113,-1.770
0.043,-0.124,1.054,-5.188,-3.479,0.305
0.055,-0.098,1.082,-7.080,-6.104,1.953
0.052,-0.072,1.090,-6.165,-9.033,3.296
0.053,-0.060,1.096,-4.333,-11.292,5.249
0.076,-0.055,1.110,-2.991,-14.282,7.263
0.095,-0.042,1.145,-2.869,-20.630,10.071
0.090,-0.048,1.203,-3.296,-25.940,14.282
0.083,-0.068,1.291,-7.019,-30.579,18.433
0.048,-0.077,1.411,-15.991,-35.217,23.132
0.004,-0.042,1.566,-31.433,-30.457,27.954
0.009,0.085,1.655,-50.842,-18.677,32.837
0.054,0.259,1.696,-66.711,-4.700,35.095
0.107,0.350,1.718,-80.627,7.812,34.973
0.144,0.477,1.849,-97.107,14.893,33.386
0.161,0.721,1.936,-116.394,26.245,27.222
0.175,0.994,1.995,-134.155,36.560,16.296
0.222,1.283,2.026,-141.479,49.072,0.366
0.275,1.531,2.051,-132.507,60.608,-17.639
0.292,1.694,2.038,-110.291,71.350,-33.997
0.280,1.787,2.004,-84.290,86.060,-52.612
0.251,1.852,1.974,-59.326,105.408,-73.547
0.195,1.869,1.912,-42.725,128.845,-92.712
0.153,1.784,1.805,-41.199,156.738,-109.009
0.107,1.732,1.683,-56.824,186.584,-125.488
0.150,1.828,1.471,-84.595,213.867,-139.832
0.218,1.889,1.170,-117.371,233.704,-155.518
0.302,1.854,0.883,-156.555,234.558,-177.917
0.291,1.767,0.709,-193.542,217.346,-207.092
0.176,1.696,0.632,-222.290,190.613,-236.145
0.007,1.608,0.609,-238.953,163.940,-264.404
-0.172,1.402,0.683,-246.887,133.545,-301.636
-0.514,1.054,0.913,-239.624,99.854,-348.877
-0.973,0.659,1.173,-217.712,73.547,-389.160
-1.713,0.196,1.560,-199.890,61.584,-419.556
-1.899,-0.061,1.446,-189.758,75.195,-437.256
-1.995,-0.681,1.569,-164.795,63.660,-444.214
-1.764,-1.221,1.591,-168.518,41.199,-429.382
-1.466,-1.471,1.672,-184.448,13.794,-409.424
-1.440,-1.386,1.759,-183.044,-16.907,-387.146
-1.632,-1.276,1.785,-151.428,-36.316,-353.943
-1.659,-1.159,1.690,-83.130,-24.109,-318.298
-1.448,-1.144,1.378,2.319,12.939,-294.189
-1.152,-1.310,0.916,77.759,58.655,-280.579
-0.711,-1.567,0.497,132.690,92.957,-271.851
-0.216,-1.814,0.270,165.527,98.816,-258.179
0.021,-1.946,0.195,176.880,82.031,-224.670
0.087,-1.863,0.125,161.072,63.660,-162.781
0.183,-1.772,0.115,116.394,51.392,-85.571
0.259,-1.439,0.106,45.837,38.208,-9.338
0.286,-0.903,0.122,-31.860,27.344,59.509
0.279,-0.385,0.192,-89.233,15.625,101.929
0.295,0.088,0.299,-110.107,5.066,119.751
0.395,0.412,0.429,-100.891,-1.160,116.760
0.475,0.582,0.546,-70.190,-5.981,97.168
0.518,0.659,0.632,-31.433,-9.766,72.815
0.551,0.594,0.652,-4.883,-9.521,47.852
0.619,0.482,0.638,8.789,-7.324,22.522
0.718,0.381,0.656,15.137,-7.629,-0.427
0.758,0.258,0.699,16.235,-10.559,-17.273
0.703,0.150,0.727,14.099,-14.099,-27.100
0.631,0.060,0.731,14.038,-13.855,-33.813
0.604,-0.042,0.724,16.113,-10.559,-38.330
0.618,-0.141,0.723,17.517,-5.981,-38.696
0.612,-0.226,0.720,16.418,-2.991,-34.546
0.610,-0.284,0.708,12.390,-1.587,-29.541
0.652,-0.288,0.692,4.639,-0.671,-23.865
0.680,-0.283,0.671,-5.981,-1.038,-14.404
0.713,-0.266,0.663,-15.503,-4.211,-7.812
0.731,-0.202,0.672,-23.010,-7.019,-0.977
0.721,-0.147,0.677,-31.067,-9.033,8.362
0.713,-0.074,0.693,-36.682,-10.803,14.526
0.703,-0.005,0.727,-35.889,-11.841,17.029
0.679,0.042,0.764,-30.334,-12.329,17.639
0.657,0.071,0.796,-22.644,-12.024,16.418
0.655,0.071,0.813,-14.648,-9.827,13.550
0.648,0.094,0.806,-7.385,-5.920,10.010
0.661,0.113,0.769,-2.930,-1.831,6.897
0.681,0.097,0.724,-1.404,1.160,2.869
0.714,0.063,0.693,-1.892,0.793,-2.869
0.745,0.019,0.682,-1.770,-0.549,-7.874
0.738,-0.027,0.689,-0.244,-1.953,-11.841
0.702,-0.046,0.703,1.770,-5.554,-13.428
0.669,-0.055,0.721,4.822,-9.644,-13.062
0.626,-0.083,0.747,6.775,-13.000,-11.597
0.606,-0.115,0.763,10.376,-11.414,-9.338
0.625,-0.141,0.771,14.160,-8.179,-5.737
0.651,-0.171,0.786,11.108,-7.812,-1.648
0.649,-0.163,0.788,5.615,-4.578,2.625
0.642,-0.130,0.777,0.244,-0.610,6.470
0.646,-0.103,0.763,-5.676,-0.854,8.423
0.659,-0.082,0.755,-8.606,0.000,9.399
0.672,-0.057,0.749,-6.409,2.258,10.803
0.661,-0.022,0.740,-3.296,-0.793,12.695
0.643,-0.004,0.734,-0.610,-3.113,14.343
0.643,0.001,0.732,0.366,-0.916,14.832
0.655,0.001,0.727,-0.793,2.625,14.404
0.677,0.009,0.720,-4.700,2.136,12.390
0.692,0.029,0.720,-5.188,3.174,9.521

0.202,0.788,1.355,-50.232,-42.358,98.816
0.223,0.833,1.276,-31.250,-36.682,85.144
0.229,0.824,1.207,-5.310,-35.583,69.702
0.222,0.772,1.145,23.254,-37.842,53.162
0.216,0.683,1.098,50.781,-41.687,36.987
0.207,0.548,1.069,73.730,-47.119,22.766
0.200,0.397,1.072,88.074,-55.481,11.536
0.178,0.253,1.099,92.834,-64.453,4.333
0.131,0.141,1.125,87.280,-72.571,0.610
0.076,0.071,1.148,73.914,-77.637,-1.465
0.022,0.024,1.167,56.396,-79.407,-3.113
-0.016,-0.008,1.188,39.063,-77.332,-3.296
-0.219,-0.083,1.469,24.658,-71.655,-1.892
-0.433,-0.012,2.056,19.897,-44.800,10.315
-0.123,0.307,1.668,4.456,11.475,15.015
-0.022,0.350,1.449,2.563,28.625,-1.587
0.128,0.234,1.283,11.169,28.015,-12.878
0.208,0.124,1.146,17.395,19.287,-18.799
0.194,0.068,1.080,23.437,9.094,-14.954
0.115,0.074,1.059,28.259,-2.808,-10.742
0.030,0.033,1.054,31.372,-12.756,-10.986
0.005,-0.036,1.047,32.715,-17.395,-12.695
0.015,-0.092,1.025,35.339,-14.648,-14.404
0.025,-0.132,1.002,35.400,-15.381,-15.259
0.033,-0.173,1.006,34.546,-16.418,-14.893
0.023,-0.213,1.040,34.180,-16.052,-10.437
0.015,-0.217,1.078,28.076,-17.334,-5.188
0.018,-0.204,1.106,20.569,-13.855,-0.610
0.024,-0.179,1.142,12.329,-13.489,3.845
0.029,-0.152,1.182,5.737,-11.292,8.057
0.061,-0.141,1.238,-3.906,-12.268,12.756
0.051,-0.160,1.335,-12.573,-10.437,18.494
0.042,-0.070,1.471,-25.879,-8.362,27.893
0.093,0.074,1.527,-39.063,0.977,36.072
0.165,0.142,1.723,-44.678,5.554,41.931
0.242,0.428,1.983,-58.105,8.179,50.232
0.243,0.754,2.085,-84.351,19.043,56.946
0.236,0.952,2.208,-110.291,29.480,55.725
0.293,1.271,2.277,-132.751,42.114,47.729
0.300,1.727,2.344,-144.348,59.937,36.011
0.253,2.123,2.333,-146.240,83.923,18.982
0.206,2.402,2.239,-140.015,112.244,-7.629
0.167,2.609,2.160,-119.751,143.738,-42.542
0.204,2.653,1.998,-96.191,176.331,-75.806
0.304,2.398,1.806,-83.618,204.041,-106.262
0.464,2.133,1.615,-87.036,224.548,-133.667
0.571,1.993,1.431,-109.985,230.530,-155.029
0.586,1.920,1.223,-146.301,223.938,-175.842
0.484,1.889,1.027,-188.293,200.928,-201.294
0.334,1.952,0.882,-223.877,175.293,-232.544
0.225,2.050,0.735,-253.418,144.226,-269.653
0.106,1.981,0.665,-275.330,104.614,-324.097
-0.236,1.752,0.786,-277.100,52.063,-398.682
-0.862,1.438,1.048,-252.502,-3.723,-471.558
-1.691,0.878,1.341,-219.055,-45.532,-528.992
-3.152,0.050,2.424,-189.697,-74.341,-564.209
-3.237,-0.514,1.606,-186.218,-27.283,-561.523
-3.124,-1.070,1.712,-175.720,-24.719,-538.391
-2.944,-1.254,1.773,-136.047,-46.753,-494.019
-2.750,-1.402,1.762,-117.493,-53.040,-424.438
-2.606,-1.475,1.693,-76.965,-53.101,-376.343
-2.464,-1.597,1.525,-9.033,-38.879,-356.750
-2.087,-1.859,1.168,75.439,6.409,-350.647
-1.561,-2.489,0.780,169.495,68.176,-351.440
-1.024,-3.246,0.444,253.540,118.774,-342.957
-0.667,-3.513,0.208,315.674,143.433,-281.921
-0.204,-3.133,-0.039,319.946,149.963,-156.494
0.188,-2.520,-0.233,237.122,134.705,-20.020
0.257,-2.004,-0.278,96.436,98.694,85.938
0.072,-1.164,-0.224,-43.884,62.683,171.021
-0.100,-0.173,-0.216,-146.912,41.199,228.760
0.006,0.750,-0.249,-202.148,26.428,241.882
0.264,1.461,-0.119,-201.538,6.531,213.745
0.495,1.718,0.072,-162.964,-14.832,156.128
0.644,1.522,0.269,-114.319,-35.339,92.102
0.706,1.171,0.488,-62.378,-48.584,36.682
0.630,0.904,0.722,-11.353,-50.781,-3.113
0.578,0.689,0.911,22.888,-43.823,-35.034
0.562,0.429,0.979,39.063,-30.090,-57.434
0.560,0.157,0.983,46.936,-16.907,-70.129
0.549,-0.118,0.962,44.861,-8.240,-74.707
0.536,-0.320,0.901,35.767,3.418,-71.106
0.544,-0.395,0.798,19.409,12.878,-62.317
0.563,-0.400,0.709,5.493,17.883,-52.979
0.587,-0.386,0.647,0.183,19.714,-43.213
0.604,-0.354,0.584,-3.418,14.404,-31.189
0.632,-0.332,0.531,-8.484,9.949,-20.691
0.687,-0.328,0.520,-15.137,-0.488,-13.855
0.696,-0.259,0.567,-23.743,-11.475,-7.446
0.626,-0.170,0.598,-35.706,-19.592,2.014
0.571,-0.111,0.662,-46.387,-24.658,6.958
0.566,-0.077,0.734,-51.941,-23.560,9.216
0.598,-0.043,0.776,-60.547,-22.644,13.000
0.633,-0.001,0.808,-66.040,-18.860,15.564
0.647,0.078,0.835,-62.317,-16.541,16.418
0.641,0.137,0.834,-54.382,-17.883,16.846
0.658,0.177,0.822,-46.021,-19.409,14.099
0.685,0.219,0.819,-33.813,-18.250,8.789
0.678,0.247,0.817,-23.376,-21.973,3.235
0.652,0.226,0.824,-14.526,-22.583,-3.235
0.616,0.186,0.851,-8.484,-20.630,-9.094
0.589,0.145,0.849,-7.568,-18.799,-17.273
0.596,0.116,0.828,-6.348,-14.282,-25.452
0.612,0.089,0.815,-5.005,-14.099,-32.104
0.624,0.015,0.810,-0.183,-12.085,-36.255
0.611,-0.080,0.813,3.601,-12.451,-37.354
0.604,-0.140,0.829,3.174,-15.076,-35.339
0.596,-0.165,0.838,1.160,-16.174,-30.640
0.587,-0.166,0.838,0.916,-14.282,-23.254
0.575,-0.167,0.842,1.770,-12.878,-14.587
0.550,-0.177,0.849,1.404,-12.390,-7.202
0.541,-0.179,0.860,-2.441,-12.451,-1.160
0.552,-0.166,0.868,-7.385,-9.827,3.479
0.571,-0.127,0.876,-10.254,-4.395,7.690
0.586,-0.093,0.875,-13.123,-2.197,12.512
0.599,-0.040,0.850,-17.578,-1.953,15.320
0.623,0.004,0.825,-17.944,1.953,15.808
0.642,0.034,0.809,-16.479,2.502,14.648
0.637,0.063,0.803,-14.526,-1.221,11.719

0.049,0.419,1.274,26.306,-38.147,-7.080
0.045,0.335,1.210,41.382,-33.020,-13.672
0.032,0.235,1.162,55.115,-30.273,-19.348
0.023,0.140,1.111,64.087,-29.175,-23.865
-0.016,0.017,1.124,69.092,-28.442,-26.917
-0.102,-0.131,1.202,66.772,-24.963,-26.672
-0.242,-0.234,1.401,57.556,-10.803,-22.095
-0.168,-0.137,1.430,58.289,10.559,-15.991
-0.079,-0.155,1.232,42.908,27.100,-19.043
0.008,-0.262,1.112,26.001,29.297,-19.470
0.044,-0.276,1.078,15.015,27.100,-13.977
0.054,-0.205,1.013,1.343,24.353,-6.531
0.038,-0.139,0.994,-9.460,19.897,-1.160
0.020,-0.086,1.002,-13.184,15.198,2.014
0.007,-0.048,1.007,-13.977,12.512,3.235
-0.001,-0.018,1.000,-13.428,11.963,3.967
-0.011,0.005,0.991,-11.536,12.939,3.845
-0.020,0.021,0.981,-7.874,13.733,3.052
-0.006,0.029,0.972,-3.357,15.137,1.343
0.015,0.019,0.967,1.892,15.686,-0.854
0.026,0.001,0.978,5.798,14.465,-2.441
0.026,-0.008,0.992,8.728,14.587,-2.441
0.045,-0.020,1.001,10.498,13.977,-2.441
0.072,-0.039,1.018,10.864,12.146,-3.540
0.094,-0.055,1.050,11.292,8.118,-3.174
0.110,-0.071,1.094,12.146,4.272,-0.916
0.137,-0.072,1.130,9.216,-2.808,2.625
0.143,-0.063,1.169,5.615,-7.019,4.761
0.143,-0.048,1.199,1.709,-13.123,6.287
0.149,-0.034,1.243,0.793,-16.663,8.362
0.141,-0.032,1.292,-0.488,-22.827,11.475
0.173,-0.014,1.320,-2.625,-27.222,18.311
0.192,0.025,1.381,-9.033,-33.813,26.611
0.151,0.021,1.519,-19.409,-39.795,34.363
0.069,-0.037,1.801,-36.011,-40.894,42.297
0.038,0.087,2.004,-65.125,-27.954,50.110
0.072,0.328,2.156,-104.980,-7.507,54.626
0.121,0.675,2.324,-146.118,11.780,55.908
0.176,1.134,2.489,-182.861,32.532,53.345
0.201,1.592,2.588,-215.210,56.824,48.218
0.241,2.078,2.548,-238.831,88.745,34.241
0.275,2.468,2.459,-243.896,122.192,1.953
0.280,2.855,2.312,-227.295,155.029,-39.307
0.236,3.211,2.205,-189.514,186.218,-78.796
0.115,3.270,2.023,-143.127,213.867,-119.141
0.091,3.036,1.844,-98.572,241.516,-158.142
0.129,2.755,1.664,-65.613,266.907,-200.073
0.053,2.594,1.473,-46.204,287.292,-238.708
0.027,2.335,1.164,-46.753,305.969,-264.587
0.147,1.941,0.833,-71.533,311.707,-291.504
0.185,1.596,0.599,-106.628,289.124,-332.947
-0.039,1.371,0.525,-135.864,243.347,-383.301
-0.544,1.158,0.608,-148.010,193.054,-433.960
-1.209,0.718,0.915,-139.709,150.879,-480.530
-2.138,0.034,1.299,-121.399,127.197,-506.104
-3.039,-0.715,1.675,-106.445,143.799,-487.732
-3.055,-1.397,1.268,-127.197,219.910,-443.298
-2.114,-1.645,0.471,-182.861,271.851,-408.447
-1.673,-1.501,0.270,-221.008,208.923,-396.973
-1.480,-1.439,0.446,-247.192,114.563,-382.263
-1.526,-1.465,0.622,-243.713,32.349,-343.140
-1.490,-1.419,0.636,-209.534,-31.677,-298.218
-1.306,-1.436,0.876,-152.222,-85.205,-264.832
-0.948,-1.585,1.077,-98.389,-107.239,-239.197
-0.588,-1.925,1.322,-58.655,-107.971,-225.098
-0.372,-2.128,1.491,-21.667,-83.618,-217.957
-0.519,-2.068,1.463,19.958,-41.443,-203.186
-0.719,-1.874,1.128,73.547,18.616,-162.842
-0.333,-1.744,0.622,108.459,78.247,-89.844
0.253,-1.647,0.221,88.806,107.422,-9.583
0.536,-1.290,-0.040,16.357,98.816,69.824
0.524,-0.673,-0.207,-69.275,72.266,134.216
0.416,-0.032,-0.213,-126.465,41.443,171.387
0.360,0.510,-0.113,-147.522,11.230,176.453
0.447,0.865,0.036,-131.897,-8.728,155.640
0.620,0.967,0.222,-101.318,-26.001,118.347
0.751,0.887,0.418,-66.895,-36.560,75.378
0.807,0.741,0.621,-36.560,-44.617,34.302
0.772,0.572,0.821,-9.949,-44.800,-2.686
0.701,0.376,0.967,11.414,-39.368,-34.302
0.633,0.199,1.008,31.433,-23.560,-54.993
0.589,0.001,0.955,45.837,-4.761,-66.711
0.623,-0.199,0.814,56.458,16.907,-72.876
0.678,-0.351,0.636,53.711,28.870,-71.228
0.768,-0.456,0.496,42.786,34.363,-63.171
0.826,-0.495,0.417,26.428,27.771,-50.476
0.848,-0.481,0.395,10.742,17.273,-33.997
0.825,-0.438,0.424,-3.601,4.578,-15.320
0.771,-0.377,0.494,-14.832,-8.728,0.671
0.749,-0.320,0.565,-22.156,-15.015,10.559
0.758,-0.258,0.647,-29.907,-18.616,17.090
0.751,-0.177,0.729,-39.429,-22.522,20.813
0.743,-0.103,0.802,-43.091,-20.081,22.583
0.743,-0.021,0.830,-41.504,-13.550,23.682
0.727,0.057,0.813,-36.865,-9.216,23.437
0.745,0.106,0.766,-29.602,-5.249,20.203
0.773,0.108,0.704,-19.958,0.366,14.038
0.798,0.101,0.645,-11.902,0.977,7.446
0.820,0.089,0.610,-8.118,-2.502,1.465
0.802,0.063,0.608,-4.944,-5.432,-3.235
0.784,0.038,0.621,-5.249,-10.315,-6.104
0.774,0.023,0.641,-4.639,-10.803,-8.667
0.766,0.005,0.667,-4.639,-13.916,-11.414
0.761,-0.007,0.684,-3.418,-14.099,-13.794
0.724,-0.020,0.704,0.000,-13.245,-15.442
0.691,-0.062,0.723,4.211,-11.841,-15.869
0.705,-0.114,0.725,4.761,-10.620,-16.296
0.726,-0.157,0.724,5.127,-6.287,-16.418
0.732,-0.180,0.717,2.991,-5.981,-13.977
0.733,-0.200,0.705,1.282,-4.822,-11.292
0.732,-0.204,0.706,1.282,-2.686,-6.592
0.731,-0.195,0.698,-2.808,-3.052,0.916
0.743,-0.164,0.684,-6.897,0.244,7.935
0.750,-0.121,0.686,-11.780,-0.977,12.451
0.744,-0.074,0.689,-14.404,0.977,14.954
0.739,-0.030,0.682,-14.282,1.831,16.113
0.736,-0.002,0.671,-13.672,0.244,14.404
0.736,0.006,0.666,-10.071,1.648,10.437
0.742,-0.003,0.653,-5.005,4.395,6.714

-0.528,0.155,2.430,-70.251,-33.386,-7.507
0.394,0.299,2.393,-101.074,25.330,-9.766
0.399,-0.146,2.607,-112.488,36.255,-6.287
0.279,-0.391,2.757,-153.625,41.992,37.781
0.200,0.081,2.390,-189.819,39.429,42.480
0.312,0.962,1.668,-175.476,42.603,30.151
0.248,1.156,1.253,-94.666,29.480,21.179
0.017,0.898,1.036,-7.324,5.615,0.793
-0.058,0.522,0.868,58.533,-7.080,-25.146
-0.028,0.139,0.802,99.548,-14.893,-43.213
-0.023,-0.128,0.759,113.525,-16.296,-46.692
-0.075,-0.298,0.712,105.713,-17.822,-41.443
-0.133,-0.407,0.733,89.172,-17.090,-33.997
-0.121,-0.467,0.739,67.078,-12.878,-23.621
-0.096,-0.483,0.761,43.030,-11.108,-13.977
-0.099,-0.493,0.817,23.132,-12.390,-6.287
-0.121,-0.484,0.894,4.883,-15.198,-1.038
-0.135,-0.467,0.971,-3.906,-14.709,2.197
-0.117,-0.452,1.022,-5.737,-13.428,4.089
-0.087,-0.419,1.052,-4.761,-12.756,7.141
-0.104,-0.397,1.080,-4.150,-13.184,7.935
-0.049,-0.302,1.093,-4.333,-10.376,7.263
-0.037,-0.222,1.077,-5.554,-8.667,12.695
-0.045,-0.157,1.086,-4.395,-10.437,15.991
-0.033,-0.114,1.111,-2.502,-14.771,16.113
-0.015,-0.075,1.130,-1.648,-16.418,14.526
-0.003,-0.050,1.138,-0.916,-18.677,12.329
0.016,-0.042,1.161,2.747,-24.475,11.292
0.047,-0.056,1.203,7.141,-30.090,11.414
0.038,-0.085,1.270,8.240,-41.870,13.794
-0.004,-0.107,1.401,9.644,-51.208,19.836
-0.053,-0.086,1.575,6.775,-57.983,29.053
-0.077,-0.014,1.718,-5.859,-55.359,36.865
-0.059,0.140,1.793,-29.053,-45.349,39.917
-0.061,0.399,1.898,-51.575,-35.339,40.588
-0.068,0.688,1.956,-63.049,-23.010,39.551
-0.109,0.878,2.089,-66.528,-12.634,34.058
-0.193,1.031,2.285,-75.562,-1.831,17.883
-0.250,1.162,2.470,-97.046,22.156,-5.066
-0.232,1.367,2.584,-118.896,59.998,-23.926
-0.202,1.590,2.502,-131.470,104.736,-41.626
-0.142,1.737,2.336,-127.808,144.775,-63.232
-0.081,1.788,2.220,-107.849,172.729,-88.867
-0.111,1.729,2.135,-85.876,194.397,-109.802
-0.233,1.610,2.083,-76.660,220.276,-120.972
-0.385,1.403,1.991,-88.013,254.456,-128.845
-0.412,1.099,1.817,-126.953,294.434,-137.756
-0.347,0.817,1.628,-188.171,328.735,-152.893
-0.376,0.732,1.519,-254.333,349.731,-169.556
-0.473,0.844,1.482,-308.167,367.554,-182.434
-0.521,0.914,1.403,-332.520,384.766,-196.655
-0.405,0.812,1.282,-337.524,389.771,-217.224
-0.528,0.557,1.533,-328.735,375.122,-249.512
-0.320,0.500,1.293,-300.903,371.582,-281.982
-0.378,0.298,1.385,-258.484,331.726,-307.190
-0.721,-0.047,1.510,-229.858,269.287,-327.271
-1.104,-0.506,1.668,-243.042,219.055,-343.994
-1.492,-0.983,1.896,-273.560,175.720,-362.976
-1.799,-1.255,2.049,-297.852,144.592,-370.728
-1.880,-1.207,2.003,-295.227,136.353,-360.657
-1.772,-1.046,1.716,-254.639,144.836,-353.821
-1.726,-1.151,1.270,-177.551,155.945,-363.220
-1.564,-1.389,0.721,-98.145,167.969,-384.338
-1.043,-1.574,0.192,-38.147,173.462,-412.537
-0.334,-1.751,-0.102,10.315,158.691,-430.969
0.201,-1.886,-0.223,56.274,124.207,-420.654
0.297,-1.924,-0.248,103.821,82.764,-382.751
0.094,-2.162,-0.235,137.695,45.288,-310.059
0.148,-2.325,-0.292,111.816,22.949,-197.571
0.428,-2.163,-0.248,22.766,2.502,-74.951
0.421,-1.682,0.045,-70.435,-25.940,42.480
0.162,-1.062,0.267,-127.197,-43.457,143.005
0.007,-0.404,0.405,-137.268,-42.358,211.548
0.032,0.117,0.431,-108.398,-32.715,238.464
0.258,0.469,0.435,-66.833,-20.569,230.957
0.556,0.614,0.433,-32.837,-13.000,198.975
0.732,0.652,0.411,-15.625,-10.071,155.151
0.785,0.705,0.405,-8.423,-11.475,109.863
0.848,0.765,0.418,-3.235,-13.184,67.261
0.903,0.780,0.409,1.709,-15.015,31.433
0.952,0.726,0.394,5.249,-16.968,3.967
0.963,0.588,0.415,8.118,-17.456,-23.560
0.881,0.391,0.480,13.184,-16.724,-51.697
0.812,0.155,0.544,17.395,-12.756,-73.730
0.859,-0.092,0.575,22.400,-7.812,-85.449
0.915,-0.302,0.564,26.917,-4.211,-83.435
0.905,-0.441,0.517,28.015,0.671,-69.214
0.892,-0.489,0.475,22.949,2.136,-50.171
0.885,-0.459,0.422,9.338,-0.244,-30.518
0.862,-0.387,0.385,-4.883,-2.441,-10.559
0.901,-0.278,0.391,-12.939,-5.554,4.272
0.937,-0.192,0.419,-15.869,-10.559,17.273
0.896,-0.103,0.437,-17.944,-13.611,29.297
0.857,-0.008,0.450,-17.822,-13.977,35.583
0.864,0.077,0.447,-17.395,-12.695,36.377
0.874,0.136,0.441,-18.372,-13.733,33.142
0.912,0.154,0.465,-17.029,-16.357,26.428
0.935,0.155,0.499,-13.977,-18.311,18.005
0.932,0.153,0.514,-12.451,-17.761,8.789
0.916,0.149,0.528,-10.376,-16.724,-1.160
0.869,0.119,0.540,-5.676,-14.343,-9.949
0.829,0.082,0.541,-0.366,-11.780,-17.029
0.806,0.050,0.517,5.798,-7.629,-21.729
0.810,0.006,0.483,12.024,-3.967,-23.987
0.832,-0.035,0.456,14.709,-2.747,-24.841
0.854,-0.068,0.436,13.550,-2.808,-24.719
0.869,-0.098,0.426,10.986,-3.845,-24.109
0.881,-0.130,0.432,8.667,-5.920,-23.376
0.889,-0.163,0.448,7.263,-8.118,-21.118
0.887,-0.184,0.464,5.127,-9.705,-18.127
0.861,-0.187,0.484,2.808,-11.353,-14.160
0.848,-0.191,0.504,-0.366,-11.536,-9.216
0.834,-0.182,0.531,-3.662,-11.108,-5.066
0.829,-0.159,0.542,-4.028,-9.399,-0.122
0.845,-0.148,0.541,-3.418,-7.568,6.104
0.855,-0.126,0.537,-3.296,-5.249,12.024
0.874,-0.101,0.513,-4.578,-3.662,15.503
0.903,-0.071,0.501,-7.141,-3.662,15.869
0.904,-0.031,0.486,-9.094,-4.089,15.991

0.233,-0.124,1.474,78.979,-114.502,40.955
0.152,-0.149,1.548,52.917,-121.765,47.668
0.071,-0.126,1.625,20.020,-124.023,49.744
0.003,-0.064,1.682,-10.315,-118.713,47.058
-0.028,0.030,1.704,-34.607,-106.750,42.358
-0.025,0.130,1.686,-50.049,-93.323,39.551
0.004,0.223,1.641,-55.969,-78.674,37.842
0.027,0.270,1.586,-53.406,-68.054,35.278
0.036,0.296,1.522,-44.739,-58.411,30.273
0.043,0.301,1.460,-33.203,-52.979,24.048
0.044,0.264,1.398,-18.799,-47.058,16.724
-0.170,0.104,1.672,-6.775,-45.349,9.521
-0.381,0.152,2.057,8.728,-19.836,13.733
-0.111,0.350,1.677,3.906,33.691,9.338
-0.025,0.197,1.490,3.357,41.077,-20.935
0.252,0.083,1.207,11.902,43.091,-32.410
0.264,0.009,1.001,22.705,31.738,-26.062
0.158,-0.084,0.996,36.011,12.634,-18.616
0.034,-0.203,1.062,39.124,-6.470,-19.287
-0.011,-0.275,1.060,34.729,-11.658,-20.508
-0.026,-0.329,1.027,30.090,-9.216,-18.860
-0.025,-0.361,0.994,24.414,-8.911,-14.099
-0.013,-0.356,0.970,17.334,-8.850,-9.827
-0.023,-0.334,0.980,13.977,-7.874,-6.653
-0.030,-0.317,1.011,11.047,-10.620,-3.723
-0.007,-0.302,1.033,9.277,-9.338,0.061
0.041,-0.270,1.055,2.075,-12.268,4.395
0.064,-0.233,1.089,-5.127,-14.954,9.399
0.073,-0.190,1.129,-12.207,-22.705,15.381
0.104,-0.152,1.172,-17.883,-29.114,21.179
0.122,-0.110,1.237,-25.940,-39.001,26.917
0.114,-0.062,1.301,-33.386,-47.302,32.166
0.094,0.011,1.432,-38.818,-56.641,37.231
0.034,0.056,1.646,-40.283,-61.768,39.917
-0.002,0.163,1.905,-48.645,-59.631,42.053
-0.010,0.359,2.049,-66.284,-49.927,42.603
-0.065,0.588,2.365,-82.947,-37.048,39.551
-0.167,0.867,2.553,-103.638,-13.062,28.992
-0.184,1.110,2.644,-124.451,23.621,13.977
-0.094,1.383,2.616,-134.766,67.627,-4.089
0.007,1.599,2.496,-130.981,107.605,-25.452
0.087,1.782,2.363,-112.671,138.245,-48.706
0.111,1.938,2.249,-83.313,157.898,-71.289
0.005,1.957,2.172,-51.025,174.988,-89.966
-0.097,1.906,2.026,-31.677,200.867,-107.239
-0.095,1.858,1.794,-25.330,232.483,-130.859
-0.042,1.739,1.554,-28.381,256.775,-163.391
-0.005,1.559,1.367,-43.335,268.433,-195.618
0.114,1.514,1.217,-69.641,276.306,-217.529
0.238,1.491,1.005,-105.652,275.574,-237.793
0.263,1.390,0.786,-147.644,260.803,-267.761
0.188,1.312,0.705,-188.354,234.009,-307.007
-0.044,1.316,0.715,-216.248,199.219,-352.783
-0.447,1.333,0.789,-221.375,160.522,-403.320
-1.054,1.034,0.855,-211.914,119.202,-460.388
-1.766,0.349,0.943,-195.618,85.815,-507.568
-2.284,-0.192,0.993,-193.909,58.472,-526.733
-2.542,-0.484,0.972,-195.068,44.189,-525.391
-2.613,-0.837,1.055,-189.819,16.968,-510.986
-2.601,-1.351,1.243,-165.344,-22.644,-474.365
-2.460,-1.743,1.434,-139.587,-47.607,-408.203
-2.212,-1.999,1.646,-127.136,-51.331,-349.854
-1.909,-1.900,1.751,-109.741,-37.354,-297.791
-1.685,-1.676,1.647,-67.810,-5.310,-253.052
-1.424,-1.696,1.261,-7.019,48.279,-228.333
-1.012,-1.841,0.746,66.162,103.699,-217.773
-0.522,-1.817,0.270,141.846,133.301,-198.486
-0.070,-1.677,-0.012,194.031,129.456,-148.315
0.168,-1.494,-0.132,192.139,112.976,-74.097
0.286,-1.196,-0.124,125.671,94.849,4.211
0.340,-0.751,-0.039,9.705,76.904,60.486
0.389,-0.209,0.003,-108.826,62.988,81.299
0.416,0.321,0.109,-177.185,47.729,77.515
0.416,0.763,0.257,-177.979,31.189,58.899
0.442,0.917,0.422,-124.390,15.442,32.288
0.480,0.722,0.599,-42.725,0.366,3.235
0.480,0.318,0.759,31.555,-9.399,-19.836
0.477,-0.097,0.820,75.439,-11.780,-38.208
0.500,-0.416,0.864,95.886,-11.414,-48.035
0.478,-0.600,0.922,98.389,-10.803,-44.556
0.452,-0.686,0.946,78.857,-0.366,-24.963
0.461,-0.662,0.872,39.917,15.137,-3.662
0.499,-0.494,0.776,0.122,25.818,12.085
0.556,-0.323,0.692,-24.780,34.851,21.362
0.625,-0.166,0.644,-35.706,35.645,25.391
0.684,-0.040,0.637,-31.799,28.442,24.414
0.697,0.031,0.652,-16.846,18.860,22.949
0.630,0.021,0.649,-4.272,10.437,22.339
0.599,-0.042,0.677,2.502,5.188,16.296
0.628,-0.081,0.698,0.916,4.700,7.263
0.642,-0.094,0.719,-6.165,1.892,0.244
0.618,-0.114,0.763,-12.268,-3.174,-3.723
0.592,-0.147,0.804,-14.771,-1.892,-3.296
0.609,-0.141,0.805,-14.465,2.869,-0.488
0.637,-0.115,0.803,-13.550,3.418,2.991
0.627,-0.078,0.779,-10.315,5.066,5.554
0.621,-0.062,0.734,-7.874,4.578,8.057
0.637,-0.066,0.702,-8.606,2.747,6.836
0.625,-0.074,0.713,-7.202,2.686,4.761
0.615,-0.102,0.729,-9.583,1.343,4.150
0.635,-0.107,0.738,-16.113,-0.305,1.831
0.661,-0.105,0.746,-16.541,0.671,-0.916
0.658,-0.112,0.755,-15.076,-3.845,-2.869
0.647,-0.112,0.756,-10.681,-4.883,-4.028
0.634,-0.114,0.749,-5.310,-7.202,-3.662
0.630,-0.135,0.744,-2.197,-10.376,-2.441
0.629,-0.145,0.747,0.000,-10.376,-0.366
0.620,-0.151,0.758,-1.099,-13.428,2.014
0.599,-0.162,0.787,-4.761,-14.526,3.113
0.594,-0.175,0.821,-5.920,-11.475,4.944
0.610,-0.192,0.857,-8.240,-10.010,7.141
0.610,-0.180,0.888,-11.902,-9.277,10.315
0.601,-0.142,0.894,-15.808,-6.531,13.123
0.606,-0.097,0.883,-16.663,0.061,14.526
0.616,-0.058,0.850,-15.259,5.249,14.954
0.631,-0.032,0.816,-12.329,6.958,14.648
0.643,-0.018,0.790,-8.667,5.310,13.367
0.640,-0.007,0.763,-3.906,3.967,11.414
0.635,0.005,0.733,1.648,4.761,9.460

0.175,0.641,1.864,-39.856,63.721,-6.897
0.396,0.429,1.528,-12.451,57.434,-7.507
0.455,0.305,1.296,21.606,38.086,0.244
0.360,0.161,1.227,49.316,10.925,-1.038
0.193,0.013,1.237,60.059,-12.634,-7.202
0.078,-0.083,1.254,55.908,-28.992,-17.578
0.049,-0.130,1.212,45.593,-35.461,-27.649
0.022,-0.194,1.136,38.086,-38.940,-30.579
-0.042,-0.260,1.130,33.508,-46.326,-26.184
-0.108,-0.341,1.194,31.555,-46.814,-17.273
-0.120,-0.340,1.212,21.973,-44.312,-7.080
-0.119,-0.317,1.216,12.390,-34.973,4.333
-0.099,-0.266,1.267,3.906,-32.288,16.724
-0.065,-0.156,1.305,-2.197,-31.372,21.606
-0.048,-0.070,1.346,-4.089,-29.053,17.639
-0.059,-0.030,1.434,-5.066,-28.992,10.986
-0.102,0.032,1.538,-3.479,-23.315,7.629
-0.083,0.130,1.554,-7.996,-12.085,6.470
0.009,0.223,1.639,-18.494,-5.005,4.883
0.063,0.355,1.780,-29.602,2.258,5.310
0.010,0.474,1.914,-42.664,7.019,10.376
-0.081,0.555,1.992,-58.960,19.348,10.803
-0.115,0.702,2.011,-74.219,40.100,2.869
-0.049,0.998,2.030,-85.449,62.805,-9.705
0.002,1.266,2.050,-86.426,83.313,-24.353
0.060,1.408,2.035,-78.979,100.586,-41.992
0.113,1.437,2.035,-66.650,109.741,-62.256
0.124,1.336,2.027,-55.237,119.568,-81.238
0.125,1.222,2.036,-60.059,125.000,-97.290
0.067,1.257,2.060,-77.087,135.437,-113.098
-0.025,1.452,2.035,-104.004,151.794,-125.488
-0.075,1.661,1.915,-139.282,176.514,-134.033
-0.065,1.660,1.667,-182.922,199.219,-154.541
-0.120,1.497,1.422,-227.600,210.083,-191.711
-0.161,1.516,1.235,-265.930,212.280,-233.032
-0.256,1.664,1.076,-291.138,206.482,-275.757
-0.500,1.625,1.003,-297.180,188.110,-319.031
-0.772,1.303,1.042,-301.392,171.753,-363.098
-1.094,0.885,1.483,-308.655,160.461,-417.419
-2.219,0.016,2.669,-302.063,157.166,-477.722
-3.107,-1.089,2.307,-326.294,274.292,-479.675
-2.176,-0.726,1.314,-370.667,377.441,-429.871
-2.104,-1.077,1.950,-268.311,266.052,-429.199
-1.815,-1.214,1.766,-228.271,240.295,-386.230
-1.628,-1.591,1.593,-175.903,209.351,-337.891
-1.581,-1.665,1.358,-97.351,169.861,-325.806
-1.491,-1.717,1.116,-20.813,158.936,-341.370
-1.122,-1.950,0.696,42.908,172.058,-366.577
-0.540,-2.229,0.292,98.511,179.932,-385.925
-0.028,-2.355,0.031,156.250,169.373,-383.972
0.160,-2.372,-0.173,217.529,142.151,-342.957
0.203,-2.390,-0.390,247.131,110.046,-261.108
0.399,-2.342,-0.517,214.417,75.073,-158.325
0.611,-1.971,-0.481,127.563,32.593,-49.377
0.525,-1.386,-0.362,26.611,-10.193,62.134
0.333,-0.744,-0.170,-60.547,-46.448,157.654
0.250,-0.030,0.020,-117.432,-68.726,221.802
0.189,0.578,0.230,-132.507,-78.735,246.887
0.252,1.015,0.375,-119.629,-73.669,231.873
0.451,1.229,0.494,-94.238,-62.195,182.251
0.677,1.260,0.603,-63.354,-50.476,112.976
0.826,1.100,0.740,-31.921,-39.185,41.687
0.878,0.881,0.829,-3.845,-29.419,-17.212
0.858,0.680,0.812,21.362,-22.156,-61.157
0.812,0.418,0.758,41.870,-17.029,-91.248
0.739,0.060,0.715,50.415,-10.803,-107.971
0.645,-0.246,0.657,43.335,-3.052,-109.436
0.607,-0.384,0.565,24.353,4.150,-97.229
0.661,-0.455,0.474,7.629,10.620,-78.247
0.746,-0.501,0.403,-2.625,10.254,-58.533
0.786,-0.496,0.399,-11.536,-0.854,-37.842
0.772,-0.484,0.397,-20.691,-12.573,-17.090
0.786,-0.400,0.407,-26.550,-19.104,2.380
0.791,-0.287,0.435,-32.227,-26.794,18.921
0.784,-0.178,0.484,-40.039,-35.889,29.480
0.760,-0.084,0.541,-48.645,-43.701,34.241
0.706,0.011,0.656,-51.819,-46.936,34.424
0.655,0.103,0.747,-50.415,-42.908,31.860
0.646,0.160,0.806,-40.894,-31.677,27.466
0.673,0.186,0.812,-29.846,-20.264,23.804
0.717,0.207,0.757,-26.123,-11.230,19.470
0.757,0.237,0.678,-24.048,-2.380,12.634
0.791,0.239,0.613,-18.921,2.441,4.028
0.824,0.211,0.571,-14.648,-0.305,-4.517
0.842,0.172,0.559,-10.925,-5.981,-12.634
0.822,0.157,0.567,-5.188,-9.949,-19.836
0.795,0.127,0.567,0.671,-11.230,-25.452
0.778,0.070,0.585,2.197,-15.747,-30.640
0.751,0.028,0.630,3.784,-19.775,-34.912
0.729,-0.040,0.672,6.531,-18.555,-36.377
0.698,-0.117,0.704,6.042,-20.142,-35.706
0.667,-0.153,0.732,7.507,-16.235,-31.494
0.660,-0.161,0.699,5.859,-9.949,-23.376
0.683,-0.151,0.661,0.549,-7.507,-17.273
0.717,-0.146,0.650,-0.305,-3.723,-12.878
0.749,-0.155,0.640,-1.038,-3.418,-7.690
0.764,-0.134,0.639,-3.174,-4.639,-4.211
0.756,-0.082,0.635,-4.089,-4.395,0.977
0.763,-0.031,0.622,-7.751,-7.507,5.432
0.783,-0.002,0.627,-9.399,-8.728,6.775
0.778,0.016,0.653,-9.277,-10.010,7.263
0.756,0.045,0.677,-10.986,-12.512,6.714
0.719,0.080,0.716,-8.911,-10.498,4.456
0.706,0.063,0.734,-3.174,-5.249,2.075
0.726,0.030,0.713,0.732,-0.732,-0.854
0.754,0.008,0.671,2.319,2.502,-3.906
0.781,0.000,0.628,1.770,3.662,-5.615
0.782,-0.013,0.619,-0.305,1.282,-6.226
0.780,-0.011,0.612,-2.075,-0.427,-6.348
0.792,-0.013,0.608,-2.136,-0.854,-6.592
0.791,-0.026,0.631,-1.831,-3.357,-7.629
0.766,-0.031,0.644,-0.793,-5.615,-8.362
0.755,-0.049,0.656,0.305,-8.606,-9.216
0.745,-0.073,0.683,2.075,-10.742,-9.705
0.736,-0.091,0.686,2.930,-7.324,-7.874
0.727,-0.081,0.678,1.831,-4.517,-5.615
0.740,-0.061,0.666,-2.136,-4.517,-3.357
0.759,-0.035,0.653,-4.944,-3.113,-2.808
0.770,-0.016,0.645,-3.418,-1.526,-2.686

0.271,0.436,1.452,43.457,-111.328,85.327
0.257,0.350,1.481,46.021,-113.831,76.965
0.211,0.275,1.532,40.405,-123.291,71.533
0.137,0.233,1.576,27.344,-129.272,67.566
0.065,0.201,1.610,12.817,-126.526,63.354
0.004,0.212,1.621,-1.038,-121.521,57.983
-0.027,0.280,1.609,-11.780,-115.540,50.903
-0.055,0.327,1.591,-13.245,-104.553,43.457
-0.071,0.364,1.545,-9.277,-95.154,37.415
-0.069,0.387,1.479,2.625,-81.421,31.799
-0.054,0.373,1.396,17.822,-72.632,25.208
-0.030,0.313,1.315,34.546,-64.453,17.151
-0.119,0.123,1.456,48.950,-61.401,10.010
-0.603,0.161,1.917,68.237,-47.180,8.301
-0.352,0.246,1.878,50.720,0.122,-7.690
0.058,0.076,1.604,18.921,36.194,-36.133
0.293,0.022,1.220,23.193,36.743,-39.185
0.267,-0.079,1.115,34.790,18.494,-26.001
0.139,-0.098,1.154,37.598,0.488,-18.127
0.061,-0.133,1.173,34.851,-10.498,-19.226
0.041,-0.223,1.155,27.954,-19.470,-19.531
0.027,-0.282,1.131,22.339,-23.865,-15.503
-0.002,-0.282,1.104,20.203,-22.583,-10.254
-0.022,-0.268,1.073,17.090,-22.400,-6.226
-0.022,-0.255,1.033,16.052,-19.714,-4.211
-0.008,-0.246,1.020,17.822,-20.569,-3.296
-0.005,-0.252,1.036,21.423,-21.057,-1.953
-0.003,-0.271,1.066,21.423,-24.719,0.305
-0.009,-0.288,1.112,19.226,-25.085,3.296
-0.025,-0.276,1.157,14.404,-27.344,9.216
-0.013,-0.254,1.199,10.986,-26.245,16.479
0.022,-0.245,1.250,7.080,-28.320,22.644
0.042,-0.214,1.327,-0.427,-34.973,27.222
0.030,-0.159,1.469,-8.484,-43.030,30.334
-0.002,-0.080,1.654,-18.616,-47.668,32.166
-0.028,0.053,1.875,-34.973,-46.997,31.860
-0.109,0.165,2.127,-59.814,-44.128,28.015
-0.166,0.380,2.462,-88.806,-30.029,21.729
-0.214,0.818,2.702,-123.718,-4.089,10.803
-0.323,1.060,2.800,-156.128,34.119,-7.202
-0.278,1.186,2.860,-179.260,76.111,-28.137
-0.100,1.443,2.860,-187.134,116.272,-52.368
0.080,1.859,2.841,-173.950,151.184,-72.693
0.140,2.148,2.772,-140.625,178.040,-89.294
0.126,2.207,2.662,-97.351,198.853,-112.915
0.103,2.231,2.534,-47.913,220.642,-144.226
0.018,2.298,2.381,1.587,243.713,-178.162
-0.132,2.129,2.203,45.959,272.400,-209.412
-0.316,1.587,2.102,70.313,306.335,-231.750
-0.492,0.779,1.946,48.096,345.337,-237.305
-0.596,0.048,1.719,-39.673,382.263,-227.295
-0.647,-0.303,1.386,-176.086,416.992,-218.323
-0.717,-0.244,0.961,-309.387,433.044,-221.741
-0.807,-0.033,0.609,-402.344,424.561,-235.107
-0.907,0.083,0.424,-457.520,391.418,-252.869
-1.116,0.064,0.356,-484.436,340.027,-280.518
-1.813,-0.044,1.018,-480.164,280.945,-313.965
-1.578,0.277,0.269,-453.491,255.554,-341.187
-1.730,0.267,0.405,-366.577,164.307,-370.361
-1.954,-0.050,0.653,-240.723,52.734,-390.625
-2.096,-0.659,0.843,-155.823,-25.940,-392.761
-2.180,-1.476,1.087,-114.929,-69.702,-397.339
-2.080,-2.240,1.343,-106.750,-84.351,-400.574
-1.647,-2.618,1.530,-112.793,-67.444,-392.639
-1.172,-2.771,1.574,-97.473,-29.724,-370.850
-0.908,-2.825,1.436,-47.913,20.935,-326.538
-0.693,-2.715,1.037,27.039,73.792,-258.728
-0.322,-2.503,0.554,99.121,110.901,-164.734
0.081,-2.172,0.187,123.230,124.268,-47.974
0.361,-1.708,-0.042,83.008,116.882,72.266
0.397,-1.066,-0.157,5.798,91.553,168.823
0.332,-0.300,-0.160,-64.148,59.937,225.037
0.349,0.423,-0.079,-100.281,32.593,238.770
0.458,1.034,0.036,-103.271,4.456,217.285
0.582,1.503,0.173,-84.167,-16.907,173.889
0.701,1.580,0.406,-51.575,-31.799,109.253
0.795,1.354,0.655,-20.752,-34.729,40.283
0.852,1.084,0.804,3.723,-27.344,-20.752
0.883,0.788,0.867,28.015,-17.761,-70.129
0.878,0.454,0.859,51.941,-9.338,-102.905
0.833,0.156,0.799,73.364,0.366,-116.699
0.770,-0.098,0.707,84.229,9.644,-115.723
0.713,-0.341,0.569,80.566,15.564,-105.835
0.763,-0.504,0.451,63.843,18.433,-91.431
0.819,-0.588,0.422,43.640,15.930,-74.585
0.846,-0.587,0.448,22.095,3.601,-53.223
0.829,-0.489,0.479,-0.061,-9.338,-29.724
0.737,-0.351,0.531,-13.428,-15.991,-7.996
0.690,-0.212,0.600,-16.296,-20.569,4.578
0.685,-0.106,0.662,-14.526,-24.475,8.179
0.652,-0.061,0.695,-10.376,-23.987,7.874
0.670,-0.052,0.720,-5.310,-21.545,4.211
0.701,-0.052,0.716,-0.671,-12.634,3.723
0.719,-0.037,0.693,-1.038,-7.812,6.165
0.752,-0.024,0.646,-6.958,-1.282,8.850
0.786,-0.011,0.601,-18.127,2.686,10.559
0.814,0.014,0.577,-27.954,2.258,10.803
0.829,0.075,0.554,-34.973,-1.892,10.193
0.829,0.100,0.562,-34.668,-7.141,6.897
0.821,0.113,0.581,-28.198,-9.888,3.540
0.780,0.117,0.603,-20.081,-11.719,-0.427
0.747,0.093,0.609,-12.085,-12.207,-4.333
0.745,0.019,0.623,-5.737,-10.254,-8.057
0.769,-0.051,0.653,-2.747,-10.437,-11.658
0.789,-0.096,0.681,-3.479,-12.268,-13.062
0.771,-0.119,0.692,-6.104,-10.925,-11.536
0.745,-0.106,0.687,-7.812,-7.568,-8.850
0.740,-0.087,0.676,-7.874,-6.836,-7.263
0.758,-0.076,0.667,-6.409,-8.423,-7.202
0.771,-0.083,0.666,-2.563,-8.057,-7.324
0.762,-0.108,0.655,3.479,-5.249,-6.348
0.784,-0.127,0.651,5.432,-3.967,-2.991
0.808,-0.128,0.655,0.854,-6.287,0.916
0.806,-0.103,0.672,-5.371,-7.202,4.822
0.793,-0.067,0.691,-9.827,-5.249,7.874
0.787,-0.054,0.705,-11.047,-3.540,9.094
0.787,-0.008,0.696,-10.620,-2.441,10.010
0.780,0.044,0.683,-9.583,-1.099,10.071
0.792,0.070,0.661,-6.409,-0.061,7.629

0.105,0.302,1.394,76.721,-108.276,73.242
0.063,0.314,1.433,61.646,-108.826,67.017
0.046,0.344,1.460,47.974,-105.225,60.425
0.013,0.380,1.479,39.978,-99.609,53.101
-0.026,0.416,1.480,37.964,-91.858,46.204
-0.046,0.411,1.468,42.542,-82.581,39.978
-0.044,0.339,1.469,50.537,-73.730,35.095
-0.027,0.268,1.453,56.519,-65.979,32.593
-0.020,0.187,1.436,58.472,-59.631,30.396
-0.022,0.099,1.416,54.932,-55.908,27.039
-0.020,0.035,1.394,47.180,-53.284,23.926
-0.025,-0.008,1.374,36.255,-52.124,21.973
-0.177,-0.093,1.548,22.766,-49.927,20.569
-0.303,-0.345,1.902,-2.686,-32.043,24.841
-0.450,-0.069,2.209,-38.147,7.446,28.381
-0.225,0.509,1.865,-39.063,46.936,19.836
0.101,0.202,1.538,-57.739,68.420,-7.324
0.332,0.208,1.323,-40.649,64.392,-9.216
0.338,0.310,1.072,-15.381,51.025,-1.892
0.218,0.230,1.091,8.301,27.039,-5.859
0.127,0.089,1.133,20.874,6.653,-15.686
0.102,0.004,1.112,27.771,-2.014,-23.376
0.086,-0.073,1.082,31.738,-9.155,-25.574
0.078,-0.150,1.064,35.034,-14.038,-23.621
0.082,-0.207,1.052,35.156,-17.944,-20.874
0.095,-0.243,1.058,32.654,-23.254,-17.334
0.090,-0.290,1.109,29.968,-27.771,-13.245
0.056,-0.300,1.147,26.550,-30.701,-7.874
0.057,-0.283,1.146,22.156,-29.907,-2.014
0.081,-0.284,1.161,15.991,-30.396,3.052
0.090,-0.278,1.187,9.705,-34.424,8.850
0.099,-0.271,1.223,3.540,-40.100,16.907
0.141,-0.288,1.293,-5.920,-47.974,27.100
0.182,-0.327,1.457,-21.057,-57.373,37.842
0.180,-0.366,1.719,-47.546,-68.604,49.622
0.118,-0.276,1.964,-89.111,-73.303,63.599
0.058,-0.033,2.153,-139.343,-67.688,76.050
-0.000,0.379,2.344,-187.195,-58.228,82.275
-0.121,1.029,2.670,-225.342,-40.894,76.111
-0.260,1.643,2.795,-254.517,-3.967,54.565
-0.236,2.182,2.809,-258.179,43.579,21.606
-0.116,2.560,2.663,-223.755,90.332,-18.066
-0.083,3.005,2.539,-159.485,129.089,-46.509
-0.163,3.363,2.292,-80.811,168.213,-63.904
-0.213,3.476,1.989,-7.141,203.369,-92.773
-0.185,3.412,1.695,53.162,229.858,-141.846
-0.181,3.210,1.470,92.285,242.554,-204.651
-0.252,2.869,1.333,100.464,242.981,-265.259
-0.418,2.403,1.217,74.646,235.168,-323.853
-0.622,1.879,1.127,28.320,221.619,-383.057
-0.882,1.471,1.074,-19.043,205.566,-439.575
-1.150,1.251,1.029,-48.340,193.481,-483.154
-1.509,0.964,1.043,-56.213,184.265,-514.160
-2.021,0.381,1.096,-57.861,177.002,-536.926
-2.700,-0.453,1.200,-74.097,179.993,-543.396
-3.403,-1.209,1.239,-113.831,200.806,-524.536
-3.683,-1.720,1.139,-172.791,242.432,-485.229
-3.228,-1.874,0.777,-233.521,293.762,-435.181
-2.177,-1.412,0.165,-271.790,282.654,-388.489
-1.813,-1.172,0.479,-255.249,152.405,-366.516
-1.903,-1.608,0.956,-197.876,31.189,-346.802
-2.202,-2.452,1.524,-139.526,-20.874,-318.665
-1.730,-2.416,0.704,-83.862,5.798,-291.016
-1.293,-2.877,0.583,6.287,24.475,-284.607
-0.602,-3.306,0.331,85.205,56.396,-266.357
-0.248,-3.358,0.282,147.644,55.176,-205.872
-0.135,-2.853,0.192,175.537,43.701,-92.041
-0.118,-2.281,0.080,131.836,37.231,35.645
-0.127,-1.615,0.077,22.400,34.851,128.906
-0.155,-0.859,0.050,-108.032,36.377,171.631
-0.042,0.069,-0.143,-210.815,46.143,184.204
0.229,1.069,-0.242,-259.155,42.114,170.532
0.562,1.795,-0.150,-245.483,16.479,131.287
0.702,2.036,0.086,-172.729,-14.954,83.435
0.644,1.845,0.382,-75.562,-44.067,32.776
0.541,1.328,0.652,7.751,-58.289,-20.264
0.470,0.782,0.879,66.345,-56.335,-62.561
0.345,0.157,1.089,94.421,-45.166,-88.867
0.286,-0.371,1.156,89.539,-24.780,-94.849
0.338,-0.621,1.115,60.974,-1.526,-86.060
0.414,-0.652,1.033,26.611,17.212,-67.749
0.461,-0.621,0.887,-6.836,31.067,-45.593
0.516,-0.503,0.793,-28.748,35.645,-26.794
0.559,-0.350,0.752,-34.607,33.386,-13.367
0.557,-0.248,0.723,-31.433,24.719,-3.052
0.574,-0.192,0.736,-21.057,18.311,4.883
0.540,-0.143,0.795,-13.306,8.423,12.146
0.459,-0.130,0.843,-8.240,7.568,17.883
0.441,-0.119,0.862,-9.888,10.132,19.043
0.502,-0.096,0.885,-14.893,17.212,14.954
0.557,-0.049,0.924,-23.804,20.508,11.902
0.539,0.052,0.880,-33.447,28.503,13.977
0.567,0.153,0.809,-36.377,33.691,13.550
0.625,0.177,0.749,-31.616,34.912,7.812
0.681,0.195,0.707,-23.621,31.494,1.343
0.697,0.172,0.722,-10.742,23.254,-4.150
0.673,0.106,0.763,1.892,15.991,-8.789
0.648,0.085,0.785,10.193,8.789,-11.475
0.621,0.098,0.802,16.418,1.770,-14.343
0.573,0.070,0.840,25.146,1.648,-16.541
0.562,-0.001,0.846,30.090,3.479,-18.311
0.607,-0.090,0.837,31.433,8.057,-20.691
0.614,-0.181,0.859,28.687,8.057,-22.522
0.580,-0.224,0.859,26.123,11.475,-19.714
0.563,-0.225,0.831,21.179,11.780,-15.015
0.578,-0.202,0.791,18.372,14.771,-10.559
0.588,-0.168,0.753,17.517,14.282,-6.287
0.599,-0.134,0.722,16.602,11.719,-3.296
0.615,-0.123,0.698,17.822,11.658,-0.854
0.638,-0.138,0.689,16.479,7.324,0.305
0.652,-0.153,0.698,13.977,5.005,0.977
0.647,-0.146,0.719,9.094,-0.488,2.136
0.628,-0.141,0.749,2.441,-6.287,2.563
0.609,-0.120,0.778,-1.404,-6.958,3.052
0.606,-0.091,0.820,-4.639,-9.216,4.028
0.589,-0.059,0.848,-3.174,-7.507,5.066
0.577,-0.028,0.853,-0.244,-5.310,6.409
0.591,-0.029,0.838,5.249,0.671,6.592
0.600,-0.037,0.824,7.568,2.075,5.127

-0.100,0.297,1.659,-11.169,-71.777,78.430
-0.098,0.414,1.622,-13.855,-59.265,70.129
-0.052,0.483,1.551,-4.456,-43.701,63.721
-0.011,0.499,1.471,9.094,-34.119,56.335
0.023,0.463,1.376,25.818,-25.146,47.058
0.061,0.383,1.286,39.734,-21.606,36.682
0.084,0.285,1.211,49.011,-23.010,25.818
0.087,0.175,1.165,53.101,-26.245,16.174
0.080,0.084,1.128,50.659,-32.898,8.545
0.075,0.040,1.090,44.189,-39.673,2.808
-0.093,-0.024,1.262,34.790,-47.363,-2.747
-0.307,-0.178,1.668,17.151,-38.574,-3.235
-0.542,-0.045,2.052,-5.005,-10.864,-10.559
-0.054,0.258,1.630,-19.592,32.715,-30.457
0.177,0.061,1.403,-14.893,50.110,-42.114
0.246,0.110,1.220,14.343,44.128,-22.949
0.163,0.048,1.109,34.485,33.386,-16.602
0.129,-0.054,1.089,46.387,20.569,-21.729
0.097,-0.189,1.094,48.767,7.141,-28.259
0.060,-0.280,1.089,47.852,-2.991,-27.405
0.025,-0.348,1.071,44.800,-5.127,-21.912
0.006,-0.388,1.035,35.522,-7.874,-16.113
-0.002,-0.397,0.996,24.231,-7.202,-11.780
-0.006,-0.390,0.967,15.076,-6.958,-7.324
0.000,-0.378,0.973,6.226,-8.728,-3.357
-0.014,-0.352,0.991,0.916,-8.606,0.305
0.013,-0.308,1.039,-0.854,-7.690,3.052
0.068,-0.273,1.071,-2.319,-8.850,6.775
0.088,-0.225,1.114,-5.493,-14.343,9.521
0.116,-0.202,1.141,-6.409,-18.677,11.780
0.168,-0.204,1.192,-7.935,-29.114,13.428
0.208,-0.222,1.262,-11.169,-39.429,17.273
0.190,-0.241,1.348,-16.907,-52.917,24.841
0.147,-0.288,1.498,-28.687,-68.176,36.987
0.086,-0.269,1.671,-43.152,-75.256,55.847
0.031,-0.165,1.831,-68.970,-76.172,75.928
-0.074,-0.022,1.997,-106.018,-67.993,88.318
-0.164,0.346,2.146,-148.804,-49.988,93.506
-0.220,0.824,2.406,-186.707,-21.851,85.327
-0.188,1.282,2.567,-211.731,18.677,61.157
0.003,1.640,2.523,-221.313,64.819,28.625
0.175,1.937,2.478,-205.078,98.328,1.892
0.206,2.136,2.392,-176.514,120.178,-12.024
0.124,2.216,2.307,-151.062,138.550,-20.447
0.030,2.389,2.172,-134.888,158.203,-33.386
-0.227,2.532,1.991,-133.301,182.434,-55.603
-0.415,2.570,1.821,-149.048,212.280,-80.322
-0.368,2.375,1.500,-196.106,245.544,-108.826
-0.086,2.150,1.196,-256.287,268.250,-155.579
0.126,2.113,1.001,-310.059,258.850,-218.079
0.159,2.136,0.894,-343.262,228.149,-274.231
0.064,2.037,0.852,-355.347,179.993,-325.134
-0.192,1.842,0.959,-338.135,122.253,-382.446
-0.715,1.568,1.155,-301.331,54.626,-445.862
-1.517,1.032,1.667,-253.113,-5.859,-504.822
-3.259,0.246,2.855,-206.055,-31.128,-538.330
-3.121,0.092,1.923,-173.157,39.429,-533.264
-3.194,-0.686,2.025,-106.873,46.875,-531.860
-3.086,-1.553,2.067,-58.411,42.603,-511.108
-2.779,-2.021,1.942,-66.345,64.026,-468.933
-2.476,-2.110,1.682,-67.139,72.815,-447.693
-2.150,-2.039,1.235,-41.443,84.839,-433.472
-1.787,-2.114,0.762,11.780,119.080,-412.109
-1.140,-2.461,0.321,71.655,150.940,-393.250
-0.331,-2.762,0.084,116.333,152.344,-369.751
0.270,-2.711,0.057,145.081,123.108,-325.256
0.396,-2.380,0.112,168.762,84.534,-244.690
0.190,-1.980,0.138,179.626,57.739,-132.324
0.063,-1.643,0.112,152.283,46.204,-25.269
0.070,-1.275,0.102,86.792,38.635,52.917
0.087,-0.836,0.116,1.038,33.142,108.337
0.144,-0.252,0.060,-81.299,26.978,142.151
0.213,0.392,0.101,-138.000,20.752,161.621
0.279,0.913,0.128,-158.142,13.916,155.823
0.430,1.239,0.201,-147.583,8.545,127.258
0.603,1.292,0.313,-113.953,1.831,78.430
0.730,1.150,0.463,-63.904,-4.639,20.874
0.745,0.948,0.592,-11.658,-5.615,-30.273
0.728,0.663,0.642,30.457,-3.357,-74.097
0.701,0.251,0.706,57.922,-4.883,-107.727
0.661,-0.109,0.758,67.444,-3.479,-122.986
0.625,-0.350,0.770,64.026,3.296,-121.765
0.626,-0.486,0.739,53.162,13.184,-111.755
0.648,-0.557,0.651,39.734,23.254,-95.215
0.677,-0.578,0.557,28.442,25.818,-75.378
0.716,-0.569,0.497,19.653,22.583,-56.519
0.735,-0.536,0.472,11.963,18.250,-38.147
0.704,-0.473,0.465,4.456,14.832,-20.386
0.677,-0.395,0.478,-2.747,10.132,-7.751
0.669,-0.304,0.498,-11.353,2.930,-0.366
0.706,-0.239,0.505,-17.395,-0.793,2.625
0.782,-0.173,0.524,-19.836,-1.465,2.869
0.781,-0.133,0.533,-21.301,-3.418,6.958
0.745,-0.095,0.560,-20.447,-7.751,7.812
0.707,-0.073,0.602,-16.479,-11.292,6.592
0.700,-0.077,0.633,-11.841,-9.827,6.958
0.715,-0.084,0.630,-8.789,-5.981,7.812
0.772,-0.078,0.601,-9.521,-0.916,7.812
0.830,-0.072,0.577,-13.306,1.831,6.897
0.871,-0.056,0.572,-19.348,-0.366,3.906
0.857,-0.033,0.594,-23.132,-5.493,0.305
0.802,-0.004,0.627,-23.071,-11.963,-3.296
0.759,0.020,0.650,-16.296,-11.597,-6.592
0.743,0.020,0.660,-6.165,-9.888,-10.010
0.739,0.000,0.654,2.502,-10.620,-13.794
0.752,-0.054,0.647,10.437,-10.010,-18.127
0.769,-0.128,0.659,15.442,-6.470,-21.545
0.769,-0.184,0.674,15.747,-5.981,-21.851
0.748,-0.211,0.677,11.230,-7.690,-19.836
0.741,-0.227,0.677,7.446,-6.409,-16.357
0.750,-0.236,0.675,4.578,-2.686,-10.498
0.754,-0.232,0.669,-0.305,-1.709,-3.967
0.764,-0.221,0.670,-5.493,-2.991,1.526
0.768,-0.215,0.680,-7.446,-1.282,5.798
0.759,-0.212,0.692,-7.812,1.099,9.949
0.756,-0.194,0.695,-9.338,1.526,13.672
0.756,-0.167,0.696,-10.010,1.831,16.235
0.742,-0.151,0.699,-9.888,1.526,18.311
0.742,-0.128,0.692,-10.803,3.296,19.592