aX,aY,aZ,gX,gY,gZ
0.085,0.205,1.086,-62.988,-40.894,14.709
0.083,0.231,1.077,-61.951,-39.185,12.451
0.078,0.246,1.052,-63.171,-37.170,9.949
0.065,0.263,1.034,-65.918,-34.363,9.583
0.050,0.266,1.014,-69.092,-31.494,9.827
0.037,0.266,1.015,-67.139,-29.785,10.681
0.028,0.262,1.018,-59.143,-29.358,10.864
0.028,0.273,1.017,-49.011,-29.175,10.742
0.014,0.283,1.019,-39.246,-30.090,10.071
0.017,0.292,1.016,-33.142,-30.334,8.728
0.017,0.301,1.006,-30.151,-29.846,7.996
0.022,0.290,1.001,-30.640,-28.625,7.324
0.006,0.292,1.006,-29.419,-28.015,6.958
0.000,0.306,1.026,-26.184,-27.344,7.385
0.003,0.326,1.043,-22.278,-26.733,7.935
-0.002,0.343,1.056,-18.555,-25.635,8.118
0.019,0.358,1.062,-14.343,-23.254,7.935
-0.007,0.359,1.072,-9.949,-22.766,6.287
-0.017,0.376,1.067,-5.676,-21.606,5.249
-0.005,0.380,1.062,-2.625,-18.799,4.211
-0.003,0.379,1.055,-1.648,-17.090,2.136
-0.007,0.379,1.047,-0.916,-15.991,-0.061
-0.000,0.373,1.038,-2.380,-15.320,-2.075
-0.010,0.358,1.036,-4.150,-14.648,-3.479
-0.007,0.345,1.034,-5.310,-13.855,-4.578
-0.003,0.327,1.031,-4.883,-12.390,-5.493
-0.011,0.311,1.029,-1.526,-10.742,-6.042
-0.012,0.294,1.027,4.089,-9.460,-6.226
-0.008,0.283,1.022,10.559,-8.423,-5.798
-0.012,0.280,1.022,17.822,-7.019,-4.822
-0.020,0.283,1.025,26.306,-5.310,-3.479
-0.035,0.290,1.051,37.231,-4.089,-1.953
-0.037,0.305,1.100,53.528,-2.380,0.427
-0.064,0.293,1.194,78.491,-0.732,3.357
-0.090,0.256,1.351,116.394,2.563,7.874
-0.150,0.125,1.580,176.697,6.165,13.977
-0.209,-0.157,1.952,274.109,11.169,17.944
-0.234,-0.446,2.329,401.550,17.883,21.667
-0.250,-0.795,2.635,536.926,29.114,27.283
-0.217,-1.218,2.930,665.344,44.861,37.903
-0.221,-1.744,3.119,771.545,61.035,52.124
-0.193,-2.198,3.101,846.802,83.252,77.332
-0.179,-2.471,2.841,886.169,102.905,116.394
-0.316,-2.485,2.328,898.987,110.229,166.504
-0.458,-2.276,1.802,885.437,117.371,237.549
-0.532,-1.934,1.368,849.609,122.742,311.035
-0.478,-1.534,1.098,817.871,119.934,362.305
-0.398,-0.861,0.838,805.664,110.962,385.498
-0.357,-0.354,0.717,801.147,89.294,382.507
-0.247,0.199,0.481,777.649,71.594,364.624
-0.238,0.644,0.279,726.196,56.580,328.003
-0.206,0.917,0.134,630.127,36.133,282.104
-0.175,1.085,0.074,509.155,15.686,238.037
-0.229,1.226,0.062,366.821,-2.319,199.097
-0.211,1.197,0.102,213.989,-21.057,161.133
-0.170,1.034,0.262,80.383,-38.086,130.859
-0.061,0.807,0.476,-23.743,-57.922,101.013
0.084,0.605,0.673,-84.717,-73.059,74.341
0.278,0.389,0.868,-109.619,-79.651,50.659
0.488,0.382,1.044,-111.938,-70.190,36.316
0.593,0.236,1.134,-90.759,-43.396,11.902
0.697,-0.056,1.015,-63.538,-10.742,-11.963
0.680,-0.360,0.641,-48.279,19.897,-13.733
0.642,-0.552,0.261,-38.086,37.720,-6.226
0.650,-0.681,0.028,-38.086,44.128,-3.479
0.677,-0.787,-0.147,-45.532,48.401,-5.005
0.662,-0.896,-0.315,-50.903,50.598,-4.089
0.663,-0.900,-0.437,-55.481,45.288,0.183
0.641,-0.973,-0.490,-53.589,36.926,4.089
0.672,-0.968,-0.468,-49.377,28.381,9.521
0.671,-1.006,-0.436,-36.865,16.602,10.742
0.672,-0.973,-0.403,-20.020,7.935,13.306
0.677,-0.932,-0.371,-6.042,0.488,15.625
0.677,-0.849,-0.332,1.892,-5.371,18.799
0.675,-0.749,-0.280,3.784,-10.620,22.278
0.673,-0.644,-0.175,-0.244,-14.038,22.949
0.672,-0.579,-0.094,-5.615,-13.245,19.409
0.678,-0.554,-0.047,-9.399,-9.399,13.916
0.663,-0.559,-0.028,-10.681,-5.371,8.850
0.660,-0.585,-0.023,-10.193,-3.540,6.348
0.662,-0.614,-0.042,-7.446,-1.343,3.845
0.651,-0.637,-0.081,-4.089,1.770,1.831
0.655,-0.664,-0.133,-2.808,3.296,1.892
0.656,-0.678,-0.167,-3.662,5.127,2.686
0.650,-0.694,-0.195,-7.141,7.202,3.967
0.648,-0.721,-0.226,-11.780,8.545,4.456
0.643,-0.743,-0.240,-14.954,8.972,4.456
0.646,-0.763,-0.242,-14.587,7.629,3.784
0.655,-0.777,-0.240,-9.277,5.554,2.991
0.658,-0.778,-0.247,-2.258,3.418,2.380
0.658,-0.769,-0.255,2.869,1.404,2.319
0.661,-0.753,-0.252,5.676,-0.610,3.357
0.658,-0.735,-0.233,6.958,-3.113,4.272
0.655,-0.721,-0.219,7.263,-4.822,3.906
0.660,-0.716,-0.201,7.751,-6.042,2.869
0.666,-0.722,-0.173,7.263,-6.653,1.892
0.671,-0.722,-0.165,6.409,-6.042,1.282
0.668,-0.730,-0.160,4.944,-3.540,1.038
0.663,-0.739,-0.150,2.441,-2.991,1.404
0.660,-0.738,-0.149,0.916,-1.465,1.526
0.653,-0.738,-0.146,1.221,0.305,1.587
0.646,-0.751,-0.157,2.258,0.977,1.282
0.643,-0.747,-0.169,3.967,1.038,1.770
0.641,-0.741,-0.177,4.639,1.160,2.869
0.644,-0.737,-0.184,3.784,-0.427,3.601
0.651,-0.732,-0.193,4.272,-0.122,3.479
0.653,-0.734,-0.204,3.906,0.610,3.296
0.661,-0.744,-0.211,3.296,0.488,3.357
0.655,-0.743,-0.219,3.418,0.793,3.418
0.653,-0.740,-0.221,3.235,0.488,3.723
0.652,-0.730,-0.210,3.174,-0.488,3.784
0.656,-0.731,-0.197,4.028,-1.587,3.357
0.658,-0.733,-0.191,4.333,-2.014,2.502
0.658,-0.740,-0.178,3.845,-2.075,1.770
0.657,-0.745,-0.179,3.967,-2.136,1.465
0.659,-0.755,-0.181,3.784,-2.197,1.343
0.662,-0.760,-0.169,3.601,-2.441,1.709
0.665,-0.765,-0.157,2.686,-2.747,2.380
0.666,-0.761,-0.151,2.441,-2.686,2.686

0.128,0.174,0.964,8.545,-1.648,1.221
0.125,0.172,0.961,5.920,-1.648,1.343
0.126,0.169,0.960,3.052,-2.136,0.977
0.122,0.168,0.961,2.136,-3.235,0.854
0.125,0.164,0.959,2.014,-5.615,0.610
0.126,0.162,0.961,3.418,-5.554,0.671
0.130,0.161,0.967,5.005,-4.028,0.916
0.131,0.163,0.970,6.042,-2.869,1.465
0.133,0.159,0.970,6.226,-2.869,1.831
0.131,0.161,0.971,6.287,-2.563,2.380
0.125,0.164,0.969,6.958,-1.892,2.441
0.124,0.163,0.974,6.653,-2.502,2.258
0.123,0.168,0.969,4.150,-4.028,2.136
0.124,0.168,0.966,1.587,-4.822,2.258
0.123,0.169,0.967,0.854,-5.066,2.197
0.122,0.167,0.967,1.038,-5.310,1.953
0.124,0.167,0.966,1.587,-5.371,2.075
0.126,0.165,0.967,1.709,-5.066,1.892
0.123,0.167,0.970,2.197,-4.028,1.526
0.122,0.170,0.970,2.136,-4.028,1.465
0.121,0.166,0.968,1.709,-4.517,1.465
0.120,0.162,0.965,2.869,-4.761,1.282
0.121,0.163,0.968,4.578,-4.333,1.038
0.117,0.164,0.970,5.432,-4.639,1.221
0.120,0.169,0.971,5.554,-3.845,1.404
0.119,0.172,0.973,4.944,-3.845,1.465
0.119,0.180,0.982,4.578,-4.395,1.770
0.117,0.185,0.984,4.822,-2.502,1.648
0.115,0.191,0.994,5.493,-1.648,1.221
0.115,0.207,1.007,7.874,-1.099,0.793
0.111,0.213,1.039,12.512,-0.061,-0.427
0.112,0.211,1.081,20.447,0.000,-1.648
0.111,0.141,1.163,37.659,-0.305,-4.822
0.100,0.077,1.290,72.266,-0.488,-9.155
0.093,-0.080,1.527,126.343,-2.014,-15.442
0.078,-0.232,1.794,211.182,-3.113,-22.217
0.078,-0.460,2.042,325.378,2.747,-32.410
0.136,-0.724,2.326,453.308,10.498,-43.579
0.199,-1.054,2.516,576.904,23.560,-50.171
0.224,-1.430,2.653,678.955,38.879,-50.354
0.271,-1.774,2.741,772.827,58.411,-39.917
0.299,-2.013,2.630,863.525,71.960,-21.301
0.101,-2.117,2.272,936.584,73.303,10.742
-0.073,-2.056,1.806,966.187,69.580,74.158
-0.133,-2.006,1.469,942.810,64.941,146.301
-0.172,-1.751,1.143,882.568,61.401,206.055
-0.263,-1.278,0.721,820.984,60.974,248.596
-0.176,-0.934,0.359,748.779,56.396,266.479
-0.118,-0.548,0.103,673.035,46.753,271.851
-0.153,-0.218,-0.101,596.191,36.011,268.677
-0.187,0.097,-0.225,521.362,29.053,257.385
-0.218,0.402,-0.343,449.036,18.738,238.831
-0.277,0.525,-0.305,363.647,3.906,214.050
-0.317,0.657,-0.293,267.944,-10.803,184.570
-0.331,0.730,-0.273,177.368,-24.231,159.729
-0.296,0.840,-0.138,95.825,-46.082,138.062
-0.149,0.832,0.041,26.184,-72.144,115.967
0.013,0.715,0.221,-35.400,-93.201,90.149
0.182,0.527,0.349,-88.196,-102.661,64.148
0.287,0.403,0.810,-116.089,-95.032,43.152
0.606,0.172,1.767,-94.482,-70.251,19.531
0.803,-0.065,1.857,-28.870,3.723,-15.198
0.936,-0.233,1.390,5.798,69.336,-40.344
0.762,-0.541,0.719,-14.465,99.609,-36.743
0.646,-0.679,0.220,-63.232,105.042,-13.550
0.610,-0.785,-0.094,-88.562,96.680,4.028
0.592,-0.846,-0.313,-85.815,87.280,11.780
0.583,-0.929,-0.526,-70.374,76.904,13.794
0.574,-0.950,-0.709,-55.420,63.232,15.808
0.555,-0.937,-0.817,-46.692,45.715,20.142
0.543,-0.910,-0.829,-36.255,25.513,24.597
0.537,-0.902,-0.810,-20.691,4.456,24.231
0.540,-0.873,-0.764,-2.563,-10.071,20.386
0.554,-0.786,-0.638,12.817,-23.926,15.991
0.588,-0.700,-0.446,24.597,-34.607,10.132
0.622,-0.634,-0.235,35.156,-40.771,3.174
0.677,-0.549,-0.007,40.649,-38.574,-2.258
0.696,-0.513,0.131,35.645,-25.696,-5.676
0.714,-0.551,0.136,19.470,-9.583,-4.822
0.698,-0.622,0.046,-0.977,4.517,-0.916
0.645,-0.675,-0.094,-13.245,13.977,2.869
0.608,-0.719,-0.224,-14.832,17.029,4.272
0.580,-0.761,-0.308,-10.254,15.442,3.357
0.570,-0.787,-0.368,-3.845,11.414,2.197
0.567,-0.800,-0.391,0.793,6.897,2.197
0.578,-0.799,-0.394,3.418,3.052,2.625
0.593,-0.786,-0.384,5.798,-0.427,2.747
0.605,-0.771,-0.352,8.179,-3.357,2.197
0.611,-0.756,-0.310,10.010,-5.249,1.404
0.621,-0.741,-0.282,10.376,-6.470,1.038
0.620,-0.727,-0.254,10.132,-6.897,1.343
0.622,-0.718,-0.238,10.437,-7.324,1.404
0.617,-0.720,-0.237,11.902,-7.629,0.488
0.610,-0.726,-0.247,11.963,-7.202,-0.061
0.606,-0.733,-0.263,10.254,-6.958,0.061
0.602,-0.754,-0.270,7.812,-7.141,0.244
0.602,-0.762,-0.274,5.981,-6.348,0.671
0.599,-0.777,-0.279,4.456,-5.371,1.160
0.591,-0.782,-0.293,3.479,-3.723,2.075
0.586,-0.777,-0.314,2.136,-3.113,2.625
0.577,-0.772,-0.322,2.991,1.160,3.418
0.574,-0.760,-0.321,0.854,0.183,4.333
0.574,-0.752,-0.315,0.244,1.587,5.188
0.582,-0.746,-0.297,-0.183,-0.854,5.310
0.592,-0.742,-0.281,0.061,-1.221,3.906
0.591,-0.754,-0.274,2.014,-0.244,2.808
0.598,-0.761,-0.278,1.404,-2.625,1.587
0.596,-0.768,-0.280,3.235,-1.038,1.282
0.602,-0.770,-0.280,4.639,-0.977,1.831
0.608,-0.767,-0.280,4.639,0.305,2.441
0.604,-0.763,-0.277,2.991,0.732,2.869
0.605,-0.761,-0.278,3.174,2.258,2.991
0.602,-0.763,-0.278,1.770,0.366,2.869
0.601,-0.761,-0.282,2.380,2.197,2.808
0.601,-0.763,-0.287,3.052,1.160,3.540
0.596,-0.758,-0.286,1.221,-1.831,3.601
0.599,-0.755,-0.287,0.916,-0.610,3.662
0.599,-0.759,-0.287,1.221,0.122,4.150
0.600,-0.762,-0.291,-0.061,-2.319,3.845

0.085,0.245,0.947,3.662,-1.038,2.014
0.086,0.244,0.946,4.150,-1.587,1.892
0.084,0.242,0.944,5.066,-1.953,2.014
0.085,0.240,0.946,6.226,-2.197,2.075
0.077,0.236,0.948,7.446,-1.953,2.136
0.092,0.243,0.948,6.531,-2.563,2.136
0.079,0.238,0.949,5.981,-4.517,2.258
0.084,0.242,0.950,4.089,-4.517,1.892
0.081,0.248,0.951,3.174,-4.944,2.502
0.084,0.247,0.956,2.625,-4.333,2.686
0.084,0.246,0.960,2.869,-3.357,2.563
0.086,0.243,0.961,3.357,-2.686,2.563
0.082,0.242,0.960,4.944,-1.892,2.380
0.082,0.242,0.961,5.615,-1.465,2.014
0.072,0.237,0.967,4.639,-2.502,1.648
0.089,0.246,0.969,4.944,-1.465,1.892
0.083,0.246,0.967,6.042,-1.282,2.319
0.083,0.250,0.970,5.554,-0.732,2.197
0.079,0.257,0.969,5.005,-2.075,2.502
0.078,0.259,0.966,3.540,-2.869,2.075
0.083,0.249,0.970,4.028,-2.380,1.648
0.081,0.251,0.967,5.737,-0.122,1.282
0.080,0.251,0.965,4.883,0.488,0.793
0.082,0.251,0.962,4.211,-0.122,0.793
0.078,0.254,0.962,3.113,-0.977,0.977
0.079,0.256,0.959,3.052,-2.075,1.099
0.077,0.257,0.959,4.150,-2.075,0.671
0.075,0.263,0.971,6.531,-2.075,0.671
0.075,0.280,0.999,11.536,-0.183,1.099
0.077,0.303,1.033,17.517,1.892,1.404
0.084,0.287,1.114,25.269,2.930,0.610
0.099,0.202,1.229,41.504,5.981,-0.916
0.099,0.057,1.406,76.416,11.108,-3.601
0.074,-0.175,1.594,136.536,17.029,-9.521
0.020,-0.464,1.835,230.225,27.466,-18.494
0.117,-0.627,2.071,348.938,40.894,-25.940
0.110,-0.865,2.251,476.318,49.866,-28.992
0.145,-1.132,2.347,596.802,61.218,-27.893
0.124,-1.450,2.399,710.510,72.083,-21.729
0.059,-1.750,2.339,819.763,80.505,-12.634
0.018,-1.885,2.191,921.692,74.768,2.747
-0.078,-1.984,1.968,994.385,53.406,27.893
-0.143,-2.019,1.718,1021.790,30.029,70.923
-0.136,-1.893,1.420,1003.418,9.949,118.164
-0.100,-1.673,1.145,954.041,-6.958,155.884
-0.026,-1.363,0.919,887.146,-15.442,185.669
0.014,-0.996,0.677,812.622,-15.015,206.848
0.008,-0.715,0.451,730.835,-5.798,211.731
0.012,-0.476,0.266,640.320,5.554,206.604
0.032,-0.387,0.194,539.795,15.015,195.557
-0.064,-0.314,0.067,427.124,23.682,184.509
-0.159,-0.250,-0.122,313.965,27.954,176.636
-0.205,-0.203,-0.186,219.299,19.653,174.255
-0.227,-0.065,-0.202,149.536,4.517,179.199
-0.237,0.114,-0.124,102.112,-20.752,184.265
-0.265,0.354,0.041,73.425,-52.246,184.021
-0.140,0.666,0.473,51.941,-87.097,176.331
-0.182,0.634,1.855,72.083,-107.727,144.348
0.474,1.701,2.431,85.693,-101.440,69.397
1.294,1.705,1.954,-73.486,-30.273,2.930
0.812,0.222,0.819,-145.386,62.378,-29.053
0.558,-0.285,0.212,-120.544,69.092,-13.550
0.481,-0.559,-0.148,-76.782,56.763,2.686
0.544,-0.649,-0.450,-32.959,42.358,-1.404
0.571,-0.738,-0.686,10.193,31.860,-7.874
0.560,-0.800,-0.796,28.442,21.362,-11.841
0.548,-0.907,-0.916,34.790,14.587,-13.672
0.536,-1.039,-0.930,38.574,8.118,-13.367
0.507,-1.124,-0.872,41.626,1.343,-7.690
0.502,-1.186,-0.757,44.800,-6.653,-0.427
0.508,-1.171,-0.619,46.570,-15.259,6.165
0.545,-1.017,-0.451,36.682,-23.621,12.146
0.589,-0.800,-0.206,11.902,-29.419,18.738
0.658,-0.547,0.013,-21.851,-27.100,24.597
0.710,-0.446,0.107,-56.763,-15.869,22.949
0.663,-0.506,-0.012,-75.195,-0.671,15.320
0.597,-0.585,-0.180,-70.862,7.080,8.606
0.568,-0.674,-0.282,-50.415,6.653,3.418
0.563,-0.710,-0.378,-28.442,6.226,1.587
0.571,-0.738,-0.446,-16.418,5.798,2.808
0.575,-0.750,-0.465,-11.169,5.615,5.798
0.562,-0.753,-0.477,-7.019,4.639,8.423
0.558,-0.744,-0.480,-3.418,2.441,9.521
0.552,-0.751,-0.463,-0.366,-0.610,9.277
0.564,-0.750,-0.440,0.671,-4.211,8.850
0.568,-0.743,-0.402,0.549,-7.874,8.667
0.576,-0.723,-0.376,0.610,-8.301,8.667
0.580,-0.710,-0.350,-1.709,-11.230,8.850
0.590,-0.702,-0.325,-1.953,-11.047,9.399
0.587,-0.699,-0.306,0.244,-10.315,9.827
0.589,-0.694,-0.302,5.859,-8.606,9.094
0.594,-0.698,-0.308,11.169,-6.531,7.324
0.596,-0.708,-0.315,13.550,-3.662,5.249
0.586,-0.729,-0.328,12.695,-0.488,3.662
0.577,-0.749,-0.339,8.789,0.366,3.174
0.569,-0.766,-0.347,5.737,0.183,3.357
0.566,-0.783,-0.360,3.845,2.075,3.235
0.562,-0.787,-0.364,-0.183,0.183,3.235
0.565,-0.790,-0.363,-2.136,0.366,3.662
0.568,-0.793,-0.365,-3.845,-0.977,3.601
0.568,-0.780,-0.363,-5.005,-1.099,3.967
0.574,-0.770,-0.360,-5.066,-1.038,4.700
0.570,-0.755,-0.352,-6.348,-1.648,5.615
0.578,-0.740,-0.348,-7.507,-2.991,6.226
0.576,-0.733,-0.345,-6.165,-1.831,6.042
0.572,-0.728,-0.343,-5.493,-1.404,5.676
0.572,-0.726,-0.346,-4.272,-1.160,5.432
0.574,-0.730,-0.341,-2.075,-0.977,5.371
0.571,-0.732,-0.334,0.549,-1.343,4.883
0.580,-0.735,-0.336,2.686,-1.709,4.028
0.584,-0.738,-0.336,4.272,-0.061,3.357
0.582,-0.744,-0.335,4.517,0.061,2.869
0.585,-0.752,-0.334,4.089,-0.183,2.319
0.587,-0.763,-0.338,3.784,1.648,2.319
0.585,-0.767,-0.339,1.465,0.732,2.502
0.584,-0.768,-0.342,-0.732,0.916,3.235
0.587,-0.764,-0.340,-3.052,0.000,4.395
0.585,-0.759,-0.339,-5.249,-0.916,4.883
0.586,-0.754,-0.351,-5.127,-0.488,5.188

0.107,0.097,0.980,4.639,-1.343,1.282
0.108,0.097,0.979,4.700,-1.526,0.793
0.107,0.093,0.979,3.906,-1.770,0.916
0.106,0.094,0.983,3.906,-1.831,1.160
0.107,0.094,0.986,4.028,-1.892,1.038
0.104,0.094,0.988,4.578,-1.648,0.977
0.103,0.094,0.990,5.371,-1.526,0.549
0.107,0.089,0.995,5.066,-1.648,0.305
0.109,0.094,0.998,4.456,-1.709,0.244
0.111,0.091,1.000,3.418,-0.977,0.671
0.112,0.088,0.995,2.563,0.122,0.671
0.112,0.081,0.991,2.747,0.793,0.488
0.112,0.077,0.982,4.639,1.526,0.244
0.105,0.071,0.973,6.958,2.014,0.183
0.104,0.068,0.969,8.911,1.160,0.061
0.098,0.066,0.969,11.108,-0.183,0.061
0.099,0.074,0.968,12.878,-1.404,0.061
0.102,0.063,0.976,14.709,-2.319,0.000
0.103,0.076,0.979,14.343,-3.296,0.305
0.109,0.084,0.974,10.803,-4.089,0.854
0.114,0.093,0.981,5.920,-4.211,1.709
0.113,0.090,0.984,1.465,-2.991,2.014
0.116,0.085,0.979,-2.014,-2.380,2.136
0.110,0.081,0.974,-5.859,-1.953,2.563
0.106,0.076,0.966,-6.165,-0.732,2.502
0.098,0.080,0.965,-3.967,-1.648,2.136
0.103,0.082,0.967,-1.099,-2.319,1.648
0.102,0.084,0.969,1.648,-3.540,1.221
0.103,0.087,0.981,4.456,-4.395,0.916
0.111,0.093,0.992,7.080,-4.639,-0.061
0.118,0.088,1.008,10.925,-3.845,-2.136
0.130,0.071,1.052,16.418,-2.869,-4.639
0.152,-0.004,1.142,29.114,-0.488,-8.911
0.151,-0.118,1.237,52.551,3.296,-15.198
0.155,-0.316,1.365,95.093,8.606,-23.804
0.108,-0.591,1.554,163.513,11.414,-32.349
0.093,-0.905,1.838,266.357,13.550,-39.001
0.133,-1.127,2.088,400.208,17.517,-37.659
0.115,-1.440,2.295,553.406,21.851,-36.072
0.091,-1.797,2.432,708.862,20.508,-34.790
0.066,-2.048,2.426,851.624,19.348,-26.123
0.041,-2.172,2.276,960.205,10.925,-4.456
0.028,-2.179,2.134,1013.245,-12.634,31.067
-0.011,-2.053,1.909,1016.724,-35.767,73.303
-0.043,-1.812,1.675,981.018,-46.570,113.037
-0.005,-1.519,1.416,912.231,-44.922,148.010
0.063,-1.125,1.103,812.317,-32.166,171.753
0.105,-0.699,0.791,693.848,-8.545,183.655
0.029,-0.371,0.364,576.782,28.137,185.242
-0.070,-0.378,0.043,464.355,56.091,171.631
-0.158,-0.297,-0.167,355.164,66.650,153.442
-0.291,-0.198,-0.356,271.667,63.660,142.517
-0.388,-0.111,-0.394,210.205,42.114,136.658
-0.468,-0.030,-0.426,165.588,8.362,131.348
-0.454,0.124,-0.433,127.258,-31.494,129.150
-0.408,0.308,-0.335,92.163,-77.393,132.263
-0.268,0.529,-0.156,57.190,-122.314,134.827
-0.105,0.669,0.065,22.949,-155.273,125.000
0.069,0.593,0.238,-0.244,-166.199,97.717
0.247,0.457,0.384,-22.095,-156.616,61.523
0.419,0.320,0.621,-35.156,-138.611,30.212
0.547,0.071,0.845,0.427,-107.605,8.728
0.675,-0.180,0.913,29.053,-65.552,-3.845
0.731,-0.385,0.888,40.161,-19.104,-11.169
0.745,-0.564,0.652,41.138,21.484,-14.099
0.700,-0.675,0.339,27.649,50.171,-8.423
0.617,-0.749,0.047,6.409,62.622,2.380
0.585,-0.784,-0.190,-6.409,61.157,11.475
0.557,-0.833,-0.346,-7.263,49.133,13.428
0.525,-0.899,-0.456,-0.244,34.973,10.437
0.515,-0.933,-0.555,10.803,24.414,5.920
0.497,-0.946,-0.621,23.926,14.771,4.333
0.484,-0.934,-0.650,29.053,5.798,6.958
0.472,-0.897,-0.637,30.701,-2.991,10.498
0.467,-0.834,-0.594,28.809,-8.484,12.756
0.476,-0.794,-0.500,25.146,-12.756,11.108
0.491,-0.791,-0.367,22.583,-17.456,6.470
0.501,-0.798,-0.218,21.423,-16.479,2.625
0.523,-0.814,-0.084,18.799,-14.832,0.549
0.537,-0.822,-0.044,13.733,-10.681,0.122
0.534,-0.804,-0.079,3.418,-5.493,2.686
0.519,-0.773,-0.142,-10.315,-1.892,7.202
0.503,-0.750,-0.221,-21.545,0.305,11.414
0.490,-0.746,-0.291,-25.085,0.671,13.306
0.489,-0.756,-0.352,-22.705,-1.465,11.780
0.488,-0.771,-0.388,-15.869,-1.892,8.240
0.494,-0.775,-0.418,-8.423,-4.028,5.310
0.505,-0.784,-0.417,-2.625,-5.737,4.028
0.509,-0.780,-0.395,3.601,-5.493,2.869
0.521,-0.785,-0.362,7.751,-6.958,1.221
0.526,-0.797,-0.328,10.437,-4.456,0.061
0.516,-0.810,-0.310,8.606,-5.005,-0.244
0.513,-0.828,-0.294,5.676,-4.150,1.099
0.511,-0.837,-0.284,0.916,-1.770,3.540
0.503,-0.840,-0.293,-3.784,-1.648,4.944
0.502,-0.835,-0.302,-5.981,-4.395,5.554
0.501,-0.828,-0.314,-5.127,-4.211,6.104
0.501,-0.825,-0.320,-4.456,-4.211,5.615
0.504,-0.821,-0.323,-3.906,-6.287,5.371
0.502,-0.816,-0.317,-2.563,-4.211,5.493
0.500,-0.815,-0.314,-2.991,-3.357,5.981
0.493,-0.811,-0.316,-4.456,-1.770,6.470
0.481,-0.807,-0.318,-5.493,-0.427,6.653
0.479,-0.800,-0.328,-6.226,0.000,6.409
0.478,-0.797,-0.329,-5.127,0.427,6.226
0.485,-0.793,-0.328,-3.845,-0.366,5.310
0.488,-0.798,-0.322,-2.380,-1.526,4.150
0.494,-0.806,-0.308,0.000,-1.526,2.686
0.500,-0.820,-0.298,1.648,-2.991,1.465
0.501,-0.837,-0.287,3.235,-0.671,1.282
0.505,-0.861,-0.283,-0.122,-0.916,1.587
0.509,-0.872,-0.282,-3.296,-1.038,3.601
0.505,-0.873,-0.283,-4.333,1.953,5.249
0.507,-0.864,-0.288,-7.263,1.038,6.409
0.507,-0.849,-0.295,-7.568,1.709,7.568
0.512,-0.832,-0.297,-8.850,1.099,7.629
0.511,-0.822,-0.302,-8.484,1.526,7.812
0.508,-0.804,-0.307,-7.935,0.732,8.057
0.508,-0.795,-0.310,-6.958,1.404,7.812

0.108,0.173,0.976,7.080,-5.981,1.038
0.104,0.175,0.980,10.315,-5.859,0.977
0.105,0.179,0.981,11.414,-5.371,1.648
0.103,0.187,0.987,11.047,-5.432,2.258
0.107,0.192,0.992,9.277,-4.639,2.930
0.109,0.198,0.995,7.263,-3.662,3.662
0.108,0.201,0.996,5.920,-2.136,4.089
0.107,0.200,0.986,4.822,-0.671,4.028
0.100,0.198,0.976,5.005,0.427,3.784
0.099,0.197,0.964,5.310,0.732,3.357
0.096,0.196,0.955,5.737,0.427,3.052
0.094,0.194,0.953,5.981,-0.488,2.686
0.095,0.198,0.950,6.592,-1.160,2.747
0.094,0.203,0.952,6.348,-1.465,2.991
0.094,0.207,0.957,5.798,-2.197,2.991
0.096,0.210,0.959,5.310,-2.319,2.808
0.098,0.208,0.965,5.127,-2.380,2.319
0.100,0.204,0.967,4.883,-1.770,1.892
0.100,0.197,0.962,5.066,-1.526,1.282
0.097,0.194,0.957,5.981,-0.977,0.916
0.097,0.193,0.951,6.287,-0.916,0.916
0.095,0.194,0.947,5.920,-1.770,0.977
0.095,0.196,0.949,4.761,-2.686,0.793
0.095,0.196,0.953,3.235,-3.601,0.732
0.096,0.196,0.955,1.953,-4.456,0.793
0.095,0.200,0.958,2.380,-4.517,0.671
0.096,0.200,0.956,3.174,-4.822,0.488
0.090,0.196,0.951,4.333,-5.127,-0.244
0.089,0.198,0.950,5.066,-5.432,-0.793
0.083,0.188,0.951,6.409,-5.798,-1.282
0.077,0.164,0.956,9.583,-6.958,-2.380
0.074,0.124,0.976,16.235,-8.240,-4.028
0.066,0.080,1.002,27.710,-10.010,-6.287
0.057,0.001,1.056,46.082,-12.756,-9.338
0.044,-0.168,1.179,77.454,-17.395,-16.113
0.025,-0.448,1.369,134.583,-20.264,-27.771
0.054,-0.747,1.623,222.961,-22.949,-36.865
0.066,-1.046,1.952,346.252,-20.508,-38.330
0.052,-1.422,2.301,506.531,-13.123,-34.363
0.067,-1.758,2.648,705.872,-0.244,-28.015
-0.040,-1.978,2.682,895.508,14.771,-21.729
-0.168,-2.197,2.622,1050.293,13.123,-15.015
-0.224,-2.191,2.406,1171.143,-11.719,0.000
-0.290,-2.076,2.094,1233.032,-51.208,25.818
-0.346,-1.984,1.764,1221.985,-94.116,58.411
-0.240,-1.876,1.538,1154.602,-124.512,103.027
-0.030,-1.510,1.382,1047.729,-134.277,149.292
0.090,-1.002,1.079,915.466,-115.295,187.378
0.085,-0.633,0.566,760.803,-66.895,211.487
-0.056,-0.435,0.043,598.145,-18.982,221.436
-0.140,-0.239,-0.239,440.735,5.676,220.276
-0.220,-0.236,-0.334,307.983,10.071,211.243
-0.229,-0.312,-0.472,206.116,-1.221,198.853
-0.267,-0.382,-0.434,143.311,-28.564,192.017
-0.242,-0.352,-0.339,123.596,-61.218,184.570
-0.164,-0.182,-0.228,131.226,-91.736,176.025
-0.094,-0.016,-0.145,138.733,-114.502,166.687
0.063,0.192,-0.061,127.319,-132.385,157.349
0.162,0.321,0.075,97.717,-143.188,147.949
0.261,0.358,0.192,57.800,-138.000,133.240
0.318,0.313,0.328,11.780,-124.390,113.281
0.384,0.220,0.534,-30.640,-104.919,89.844
0.420,0.163,1.029,-39.063,-85.693,65.308
0.459,-0.249,1.580,14.404,-57.800,36.133
0.754,-0.165,1.163,56.091,-16.052,9.399
0.719,-0.196,0.773,-24.475,26.672,0.122
0.570,-0.403,0.324,-92.285,51.270,6.104
0.528,-0.524,0.059,-112.122,52.734,16.724
0.513,-0.651,-0.208,-87.036,48.828,16.479
0.502,-0.691,-0.440,-35.339,46.204,10.986
0.503,-0.682,-0.637,3.052,41.199,5.554
0.501,-0.619,-0.768,16.724,35.828,2.808
0.485,-0.593,-0.904,20.081,30.579,1.526
0.475,-0.597,-0.980,15.625,22.522,1.221
0.481,-0.620,-0.982,7.996,12.207,0.610
0.484,-0.644,-0.972,3.723,2.380,-2.319
0.487,-0.683,-0.940,1.587,-7.935,-6.653
0.486,-0.726,-0.883,-0.732,-19.470,-9.094
0.499,-0.729,-0.779,-3.479,-31.738,-8.789
0.513,-0.757,-0.635,-4.883,-41.077,-8.118
0.532,-0.789,-0.470,-5.371,-46.326,-7.080
0.555,-0.824,-0.268,-2.014,-46.326,-5.798
0.589,-0.894,-0.037,12.329,-41.748,-6.226
0.608,-0.897,-0.034,38.574,-30.334,-6.470
0.608,-0.814,-0.059,35.217,-16.846,-3.967
0.600,-0.742,-0.138,4.089,-5.798,4.272
0.584,-0.692,-0.227,-25.635,3.418,14.160
0.564,-0.683,-0.329,-42.358,8.667,18.188
0.537,-0.691,-0.429,-40.466,11.536,15.625
0.521,-0.706,-0.511,-28.259,9.583,10.681
0.529,-0.696,-0.549,-15.137,5.127,6.348
0.532,-0.686,-0.563,-7.202,-0.427,4.456
0.542,-0.674,-0.552,-3.052,-5.005,4.150
0.560,-0.670,-0.522,-2.075,-8.118,3.906
0.572,-0.674,-0.483,0.244,-8.911,2.808
0.579,-0.680,-0.440,3.784,-8.911,1.099
0.585,-0.695,-0.407,6.226,-8.789,-0.244
0.588,-0.703,-0.385,6.592,-7.935,-0.732
0.589,-0.708,-0.368,5.188,-7.507,-0.732
0.584,-0.708,-0.355,3.235,-6.653,-0.427
0.584,-0.705,-0.363,0.732,-6.042,-0.244
0.577,-0.709,-0.387,-1.587,-4.700,-0.061
0.562,-0.722,-0.411,-2.197,-2.563,0.183
0.553,-0.721,-0.437,-2.869,-4.272,0.244
0.541,-0.734,-0.449,-0.427,-4.028,0.366
0.545,-0.736,-0.440,-0.610,-6.287,0.977
0.547,-0.724,-0.426,0.916,-5.798,2.136
0.557,-0.715,-0.411,1.465,-6.897,1.953
0.563,-0.714,-0.396,3.540,-4.822,1.709
0.566,-0.719,-0.395,2.808,-5.188,1.282
0.571,-0.725,-0.398,2.441,-3.174,1.770
0.569,-0.735,-0.403,1.343,0.061,2.014
0.565,-0.746,-0.410,-1.038,-0.916,2.075
0.565,-0.755,-0.414,-1.465,0.854,2.197
0.562,-0.755,-0.420,-2.808,-1.343,1.892
0.560,-0.752,-0.424,-1.282,-0.244,1.953
0.559,-0.750,-0.428,-1.892,-1.892,2.014
0.555,-0.743,-0.427,-0.366,-1.648,3.113
0.554,-0.730,-0.423,0.549,-1.953,3.906

0.102,0.202,0.974,1.587,0.427,1.404
0.099,0.199,0.971,2.625,0.610,1.221
0.097,0.199,0.971,4.028,1.831,1.343
0.096,0.203,0.970,3.906,1.343,1.770
0.093,0.210,0.978,5.249,1.038,1.343
0.095,0.215,0.978,4.944,0.671,0.793
0.093,0.213,0.983,3.723,0.854,0.244
0.095,0.208,0.979,3.052,0.916,0.122
0.095,0.205,0.972,2.991,0.793,0.000
0.097,0.202,0.969,3.479,1.465,-0.183
0.095,0.200,0.964,4.395,2.197,-0.549
0.095,0.196,0.955,4.517,2.319,-0.916
0.096,0.195,0.955,4.517,1.892,-0.977
0.095,0.192,0.956,3.723,1.221,-0.793
0.097,0.183,0.959,3.540,0.916,-0.671
0.097,0.177,0.961,4.456,0.671,-0.977
0.103,0.172,0.964,6.226,0.793,-1.221
0.106,0.168,0.958,7.935,0.793,-1.038
0.106,0.166,0.956,9.460,1.343,-0.610
0.108,0.166,0.949,10.193,0.977,-0.183
0.108,0.168,0.944,11.230,0.854,0.000
0.111,0.170,0.937,12.634,0.610,0.122
0.107,0.174,0.937,13.306,0.549,0.244
0.103,0.174,0.939,12.085,-0.366,0.427
0.106,0.175,0.940,10.315,-1.221,0.732
0.108,0.180,0.947,8.850,-2.014,0.671
0.107,0.181,0.946,8.423,-2.197,0.732
0.102,0.180,0.946,9.521,-2.319,0.427
0.097,0.169,0.952,14.099,-3.052,-0.854
0.093,0.143,0.952,20.935,-2.747,-2.502
0.095,0.078,0.987,33.203,-3.906,-4.578
0.100,-0.042,1.008,59.998,-4.395,-7.874
0.093,-0.237,1.087,111.755,-4.883,-14.404
0.069,-0.467,1.175,194.397,-5.554,-25.146
0.075,-0.774,1.321,297.913,-7.507,-40.100
0.036,-1.086,1.527,418.152,-11.719,-54.138
0.083,-1.395,1.710,541.870,-14.038,-56.458
0.072,-1.659,1.898,658.569,-10.925,-46.143
0.052,-1.869,1.995,759.155,-8.911,-25.757
-0.013,-2.123,2.031,846.191,-9.277,-3.113
-0.068,-2.210,2.037,919.556,-16.907,23.865
-0.109,-2.130,1.865,974.365,-31.799,54.688
-0.198,-2.095,1.690,989.502,-56.091,87.952
-0.170,-1.978,1.524,968.750,-78.613,125.488
-0.092,-1.861,1.343,926.270,-85.022,157.349
0.008,-1.633,1.161,866.943,-77.820,180.359
0.038,-1.427,0.869,794.067,-58.838,195.190
0.002,-1.235,0.541,715.088,-36.011,202.209
-0.021,-1.090,0.237,635.437,-19.958,201.294
-0.026,-0.938,0.132,552.795,-13.977,197.388
-0.060,-0.719,-0.030,462.097,-11.963,195.862
-0.080,-0.634,-0.129,363.037,-11.597,193.604
-0.112,-0.474,-0.234,261.719,-13.916,195.068
-0.161,-0.466,-0.278,174.377,-24.231,195.129
-0.136,-0.397,-0.221,109.131,-43.213,188.354
-0.114,-0.292,-0.136,72.815,-67.566,179.626
-0.080,-0.122,-0.015,55.054,-92.285,168.945
0.017,0.074,0.107,47.729,-112.732,152.405
0.084,0.273,0.193,37.781,-124.817,132.996
0.192,0.378,0.275,17.334,-126.526,117.371
0.242,0.578,0.563,-13.550,-119.690,101.257
0.538,1.376,2.068,-45.532,-97.290,79.834
0.991,1.040,1.665,-113.525,-13.794,39.063
0.444,0.059,0.822,-161.743,57.434,7.996
0.346,-0.548,0.044,-144.653,67.993,-9.094
0.442,-0.550,-0.202,-77.209,45.166,1.831
0.550,-0.424,-0.298,-16.296,19.348,15.564
0.607,-0.374,-0.418,11.169,9.338,17.456
0.627,-0.434,-0.575,11.719,11.169,8.423
0.607,-0.523,-0.720,0.916,20.386,-2.197
0.592,-0.687,-0.844,-14.282,28.625,-9.216
0.538,-0.873,-0.917,-27.039,31.311,-10.620
0.487,-1.028,-0.963,-30.640,26.611,-7.324
0.457,-1.094,-0.931,-23.804,13.489,-3.845
0.468,-1.094,-0.848,-11.780,-4.578,-0.549
0.495,-1.005,-0.697,0.671,-22.278,3.235
0.538,-0.850,-0.511,11.047,-36.316,6.714
0.579,-0.660,-0.239,14.221,-43.701,9.399
0.667,-0.507,0.061,1.099,-39.246,9.521
0.697,-0.458,0.150,-21.057,-18.311,5.920
0.641,-0.517,0.038,-39.917,5.188,0.977
0.587,-0.587,-0.129,-47.913,18.860,-3.723
0.568,-0.608,-0.269,-44.739,24.841,-6.165
0.585,-0.597,-0.365,-39.612,24.963,-7.751
0.597,-0.608,-0.433,-33.997,25.146,-8.423
0.577,-0.659,-0.486,-27.893,25.635,-8.911
0.567,-0.695,-0.525,-17.639,25.513,-8.972
0.542,-0.737,-0.538,-6.531,23.499,-8.911
0.532,-0.768,-0.543,1.282,18.494,-8.667
0.531,-0.782,-0.525,8.301,11.108,-7.019
0.535,-0.779,-0.482,13.367,2.930,-4.333
0.550,-0.768,-0.440,14.221,-3.113,-2.075
0.568,-0.750,-0.402,12.756,-6.226,-0.549
0.575,-0.742,-0.376,11.597,-7.385,-0.061
0.581,-0.736,-0.357,10.864,-6.958,0.000
0.584,-0.743,-0.352,9.705,-5.127,-0.122
0.582,-0.753,-0.357,7.080,-3.540,0.305
0.578,-0.762,-0.363,4.089,0.000,1.526
0.574,-0.767,-0.369,0.305,1.831,2.197
0.566,-0.774,-0.385,-1.831,3.479,2.319
0.550,-0.780,-0.408,-3.479,4.211,1.709
0.542,-0.772,-0.421,-4.700,3.479,2.441
0.537,-0.762,-0.425,-7.446,0.916,3.174
0.535,-0.753,-0.422,-8.972,-1.648,4.333
0.535,-0.741,-0.424,-9.949,-2.747,4.639
0.538,-0.735,-0.425,-9.399,-3.296,4.395
0.542,-0.725,-0.423,-6.287,-2.991,3.662
0.543,-0.721,-0.418,-3.052,-2.930,3.113
0.545,-0.721,-0.408,-0.488,-2.563,2.808
0.548,-0.722,-0.398,-0.183,-2.808,2.563
0.551,-0.728,-0.390,1.465,-1.648,2.136
0.552,-0.735,-0.382,1.770,-2.502,1.282
0.552,-0.741,-0.379,2.258,-1.404,1.038
0.555,-0.742,-0.379,1.587,-2.747,1.343
0.553,-0.740,-0.383,2.686,-0.427,1.709
0.555,-0.742,-0.390,2.014,-2.258,1.526
0.554,-0.751,-0.391,3.357,-1.465,1.770
0.559,-0.754,-0.391,2.380,-2.319,1.465
0.559,-0.765,-0.389,2.563,-1.343,1.587

0.110,0.282,0.943,11.658,-1.953,-0.305
0.112,0.271,0.948,9.399,-3.357,-0.977
0.114,0.259,0.953,9.033,-4.578,-1.038
0.114,0.247,0.958,10.437,-3.235,-1.038
0.115,0.247,0.959,12.695,-0.793,-0.671
0.115,0.244,0.960,12.451,0.305,-0.427
0.115,0.250,0.959,10.620,-1.770,0.488
0.116,0.251,0.957,10.803,-0.732,1.465
0.128,0.259,0.963,9.949,-1.099,1.587
0.109,0.264,0.944,10.742,-1.404,1.892
0.115,0.267,0.951,11.230,1.221,2.502
0.116,0.274,0.943,9.644,0.732,2.258
0.114,0.274,0.939,9.216,-0.061,2.625
0.111,0.280,0.934,9.338,1.587,2.197
0.109,0.285,0.928,6.165,-0.732,2.197
0.107,0.280,0.927,4.944,0.610,2.258
0.102,0.280,0.928,3.723,-0.305,1.526
0.103,0.274,0.927,2.563,-2.991,1.038
0.103,0.271,0.932,3.662,-2.075,0.977
0.103,0.269,0.936,4.883,-0.732,0.549
0.106,0.269,0.940,5.005,-2.563,0.305
0.105,0.270,0.941,6.775,-1.099,0.244
0.109,0.269,0.938,6.592,-2.075,0.427
0.106,0.266,0.941,7.263,-0.977,0.366
0.109,0.272,0.944,6.836,-2.319,0.549
0.111,0.267,0.948,6.775,-1.099,0.549
0.114,0.267,0.953,6.165,-3.113,0.000
0.115,0.267,0.955,8.850,-1.648,-0.061
0.112,0.267,0.957,10.925,0.305,-0.671
0.114,0.265,0.959,13.062,-0.671,-0.916
0.111,0.261,0.963,18.494,1.038,-1.892
0.110,0.246,0.963,25.146,0.671,-3.113
0.111,0.181,0.973,38.513,1.526,-5.737
0.106,0.047,1.008,70.007,-0.183,-12.085
0.085,-0.168,1.052,130.615,-3.113,-24.780
0.072,-0.383,1.174,222.046,-7.263,-41.870
0.056,-0.705,1.312,333.740,-14.099,-58.960
0.026,-1.099,1.553,458.252,-23.743,-70.801
0.023,-1.531,1.870,597.229,-33.386,-72.205
0.023,-1.939,2.177,736.816,-33.386,-54.260
0.036,-2.416,2.417,872.925,-28.137,-28.870
0.056,-2.750,2.590,1009.033,-28.259,-0.854
-0.010,-2.785,2.560,1134.094,-29.419,35.400
-0.174,-2.680,2.248,1219.971,-40.466,79.773
-0.272,-2.390,1.910,1230.347,-64.575,139.404
-0.244,-2.178,1.709,1175.232,-80.078,201.599
-0.107,-1.749,1.603,1093.506,-82.214,244.263
0.082,-0.930,1.278,995.117,-63.477,266.541
0.063,-0.539,0.725,870.483,-29.846,261.841
0.122,-0.374,0.401,695.435,6.836,240.295
0.017,-0.249,0.024,487.366,45.654,211.975
-0.130,-0.398,-0.292,299.622,64.514,181.091
-0.265,-0.692,-0.485,140.503,62.439,163.391
-0.314,-0.929,-0.526,30.823,36.987,161.743
-0.300,-0.879,-0.418,-7.874,-3.967,172.485
-0.277,-0.690,-0.243,21.118,-51.819,181.274
-0.202,-0.349,-0.074,64.209,-98.328,184.753
-0.078,0.101,0.077,101.929,-135.925,180.054
0.128,0.494,0.239,95.215,-154.663,170.837
0.262,0.820,0.401,48.645,-150.391,155.640
0.433,1.043,0.545,-19.775,-126.099,138.184
0.548,1.507,1.108,-132.263,-90.332,117.493
0.667,1.515,1.859,-297.180,-32.043,95.459
0.513,0.497,1.260,-255.798,43.640,41.931
0.343,-0.295,0.507,-112.183,82.642,-14.465
0.437,-0.359,0.084,-23.743,75.745,-38.330
0.497,-0.283,-0.086,18.616,47.974,-28.381
0.585,-0.296,-0.129,17.029,25.696,-12.329
0.645,-0.381,-0.268,-1.587,23.315,-6.104
0.649,-0.506,-0.397,-13.000,34.790,-13.184
0.585,-0.692,-0.559,-10.803,48.889,-27.222
0.540,-0.890,-0.707,-5.005,58.105,-37.048
0.485,-1.052,-0.842,4.700,57.068,-38.269
0.439,-1.186,-0.912,14.343,46.143,-32.654
0.440,-1.111,-0.939,21.118,28.748,-22.156
0.438,-1.068,-0.925,27.283,8.972,-13.428
0.461,-0.999,-0.855,24.231,-9.460,-5.310
0.477,-0.954,-0.757,14.771,-23.376,1.770
0.499,-0.897,-0.627,4.395,-31.311,6.409
0.527,-0.854,-0.491,-4.517,-33.508,8.240
0.540,-0.828,-0.376,-12.512,-29.114,8.423
0.553,-0.789,-0.243,-21.118,-21.729,8.911
0.564,-0.748,-0.121,-26.733,-12.268,9.277
0.575,-0.712,-0.081,-26.306,-1.587,8.667
0.565,-0.673,-0.097,-27.039,10.498,6.714
0.537,-0.684,-0.194,-34.058,19.958,4.517
0.518,-0.678,-0.268,-36.987,23.071,5.249
0.500,-0.690,-0.339,-36.499,21.851,8.423
0.491,-0.686,-0.401,-31.250,18.494,10.986
0.494,-0.670,-0.443,-23.193,13.916,11.414
0.505,-0.652,-0.480,-15.015,9.338,9.949
0.525,-0.654,-0.496,-8.606,5.493,7.263
0.535,-0.664,-0.503,-2.502,2.991,3.662
0.548,-0.678,-0.504,3.357,1.465,0.244
0.559,-0.711,-0.495,6.592,0.427,-1.526
0.567,-0.732,-0.460,7.385,-0.732,-1.892
0.580,-0.744,-0.421,7.812,-2.075,-1.709
0.581,-0.751,-0.396,8.850,-2.441,-1.526
0.583,-0.756,-0.376,9.766,-2.441,-0.977
0.575,-0.761,-0.355,9.827,-2.563,0.244
0.568,-0.767,-0.354,8.057,-1.953,1.587
0.561,-0.769,-0.352,5.188,-1.709,3.052
0.553,-0.767,-0.354,2.625,-2.380,3.845
0.547,-0.760,-0.366,1.099,-3.479,3.784
0.542,-0.754,-0.378,-0.916,-3.723,3.906
0.541,-0.750,-0.386,-2.869,-3.662,4.333
0.540,-0.751,-0.402,-3.540,-2.869,4.333
0.535,-0.755,-0.414,-2.869,-1.648,4.089
0.529,-0.759,-0.419,-1.282,-0.793,3.662
0.522,-0.766,-0.426,0.732,-0.732,3.235
0.521,-0.762,-0.424,2.686,-1.038,2.991
0.518,-0.749,-0.416,4.517,-1.465,3.235
0.519,-0.744,-0.416,5.371,-2.136,3.113
0.523,-0.734,-0.408,6.042,-2.625,2.869
0.527,-0.738,-0.408,6.104,-3.540,2.441
0.533,-0.740,-0.409,6.226,-3.662,2.075
0.537,-0.746,-0.407,5.920,-3.906,1.404
0.544,-0.754,-0.405,6.042,-4.089,0.610
0.551,-0.766,-0.401,5.798,-4.456,0.061

0.080,0.153,0.971,-1.404,-2.808,1.099
0.079,0.151,0.970,-0.183,-2.747,0.427
0.079,0.148,0.968,2.808,-0.366,0.000
0.080,0.144,0.967,5.310,0.427,0.488
0.078,0.142,0.969,6.287,-0.610,1.160
0.081,0.143,0.974,5.676,-2.441,1.282
0.080,0.142,0.975,4.578,-3.662,1.404
0.080,0.146,0.982,4.639,-3.662,1.404
0.083,0.150,0.981,5.249,-1.892,1.343
0.084,0.161,0.977,4.883,-1.892,1.709
0.088,0.160,0.974,2.014,-1.892,1.526
0.088,0.161,0.973,1.953,0.183,1.770
0.084,0.161,0.973,0.427,-1.526,1.526
0.081,0.157,0.967,-0.916,-2.258,1.160
0.077,0.157,0.964,-0.793,-2.441,0.671
0.077,0.160,0.962,0.000,-1.343,0.305
0.079,0.158,0.962,1.709,-0.183,0.488
0.081,0.162,0.966,2.075,-2.258,0.610
0.083,0.160,0.967,2.380,-1.831,0.183
0.085,0.160,0.969,1.770,-3.052,-0.122
0.088,0.155,0.966,2.380,-0.854,-0.183
0.086,0.155,0.968,3.235,-1.404,-0.061
0.087,0.158,0.968,3.784,-1.648,-0.610
0.088,0.162,0.967,4.700,-0.488,-0.305
0.083,0.162,0.969,2.075,-3.052,-0.244
0.088,0.163,0.973,1.282,-2.136,-0.549
0.077,0.162,0.980,2.502,-0.183,0.061
0.079,0.164,0.982,1.404,-1.343,0.305
0.074,0.149,0.969,0.366,-2.991,-0.488
0.066,0.137,0.962,4.395,-3.113,-2.136
0.070,0.086,0.967,13.245,-2.747,-3.723
0.058,0.005,0.992,30.090,-4.456,-5.249
0.044,-0.156,1.056,61.340,-7.629,-9.399
0.025,-0.382,1.162,115.234,-9.521,-17.151
-0.001,-0.653,1.292,195.862,-14.709,-28.381
0.005,-0.931,1.458,302.368,-18.127,-40.100
0.021,-1.229,1.652,421.326,-22.461,-49.561
0.016,-1.537,1.858,545.593,-27.100,-47.424
-0.019,-1.808,2.012,668.274,-26.306,-29.175
-0.112,-2.052,2.108,779.846,-28.320,-4.700
-0.201,-2.204,2.149,874.023,-43.884,24.841
-0.317,-2.275,2.091,937.927,-65.186,64.697
-0.323,-2.244,1.998,963.745,-87.097,107.422
-0.340,-2.131,1.831,958.191,-102.112,148.132
-0.288,-1.929,1.644,917.969,-106.018,184.265
-0.208,-1.642,1.479,852.112,-100.281,210.693
-0.074,-1.188,1.387,759.277,-81.848,229.065
0.053,-0.853,1.088,656.799,-45.410,224.670
0.138,-0.599,0.775,549.744,-0.305,199.890
0.095,-0.484,0.441,455.994,41.748,163.696
-0.043,-0.446,0.201,355.286,70.801,132.141
-0.205,-0.525,-0.013,256.897,81.787,111.511
-0.272,-0.623,-0.213,158.020,74.524,110.962
-0.316,-0.722,-0.265,85.083,51.575,126.526
-0.308,-0.520,-0.239,56.152,15.015,145.203
-0.237,-0.265,-0.136,67.993,-28.076,160.828
-0.099,0.035,-0.085,81.604,-68.542,165.405
-0.007,0.285,0.002,81.482,-100.037,159.729
0.035,0.724,0.356,57.800,-116.821,147.217
0.295,1.383,1.435,29.053,-114.563,125.916
0.694,1.235,2.331,90.942,-88.135,69.519
1.127,0.564,0.984,121.277,-22.583,-16.357
0.668,-0.030,0.368,-67.383,84.656,-21.606
0.444,-0.223,0.177,-217.590,113.403,19.531
0.407,-0.298,0.046,-239.990,93.872,45.227
0.380,-0.493,-0.090,-160.217,72.388,31.799
0.342,-0.863,-0.372,-33.936,48.828,10.498
0.323,-0.908,-0.620,72.937,23.315,-1.770
0.363,-0.908,-0.681,96.497,4.028,-4.517
0.372,-0.932,-0.713,72.388,-6.897,-1.770
0.377,-1.011,-0.730,44.678,-10.193,1.709
0.380,-1.103,-0.718,20.691,-10.193,3.540
0.377,-1.158,-0.707,9.155,-11.658,5.188
0.389,-1.165,-0.670,7.690,-17.334,6.775
0.394,-1.133,-0.623,10.559,-26.978,10.376
0.410,-1.067,-0.544,11.047,-37.109,16.479
0.430,-0.993,-0.446,8.118,-45.593,22.461
0.456,-0.908,-0.344,6.470,-50.781,24.963
0.480,-0.849,-0.242,5.493,-51.758,24.048
0.506,-0.797,-0.156,3.845,-47.363,21.057
0.513,-0.762,-0.065,-1.831,-39.185,18.250
0.524,-0.746,-0.028,-8.240,-28.992,16.174
0.529,-0.738,0.009,-16.663,-17.700,14.526
0.521,-0.750,-0.013,-21.729,-7.568,12.878
0.516,-0.756,-0.082,-26.428,0.488,12.756
0.500,-0.751,-0.126,-29.480,5.188,14.526
0.497,-0.760,-0.201,-28.748,6.531,15.381
0.495,-0.794,-0.256,-23.682,5.432,14.709
0.497,-0.770,-0.267,-16.846,3.296,15.076
0.499,-0.771,-0.310,-11.963,2.625,14.465
0.500,-0.794,-0.323,-2.747,1.526,11.841
0.509,-0.816,-0.333,1.587,1.526,10.132
0.505,-0.824,-0.338,-2.625,2.747,9.277
0.501,-0.816,-0.329,-5.859,4.395,7.751
0.491,-0.851,-0.300,-10.376,5.798,6.165
0.485,-0.823,-0.310,-12.085,6.409,5.310
0.480,-0.829,-0.277,-11.047,4.700,3.784
0.482,-0.823,-0.283,-7.812,2.502,3.784
0.486,-0.830,-0.261,-7.385,0.061,3.906
0.492,-0.830,-0.240,-5.981,-1.648,3.967
0.501,-0.832,-0.237,-4.211,-2.930,3.662
0.501,-0.841,-0.219,-4.883,-3.113,3.662
0.511,-0.831,-0.200,-6.287,-1.953,3.906
0.514,-0.813,-0.186,-7.629,0.000,3.906
0.516,-0.811,-0.193,-9.155,3.174,3.296
0.498,-0.805,-0.199,-12.085,7.080,3.113
0.482,-0.821,-0.225,-13.550,9.766,2.747
0.471,-0.850,-0.241,-13.916,10.559,2.258
0.468,-0.861,-0.260,-9.766,9.094,2.136
0.473,-0.865,-0.267,-4.639,6.165,2.075
0.482,-0.864,-0.283,0.305,3.845,2.258
0.489,-0.862,-0.294,3.052,2.441,2.563
0.497,-0.851,-0.295,3.845,1.343,3.113
0.498,-0.842,-0.284,3.174,0.977,3.418
0.501,-0.848,-0.273,3.845,1.465,3.113
0.498,-0.852,-0.259,3.357,2.075,2.625
0.494,-0.852,-0.240,3.845,2.380,2.258
0.489,-0.856,-0.229,3.479,2.380,1.587
0.486,-0.865,-0.229,1.526,2.075,2.014

0.081,0.295,0.919,6.165,0.671,2.563
0.080,0.301,0.917,5.676,-0.671,2.441
0.082,0.307,0.927,4.395,-2.014,2.380
0.084,0.306,0.938,2.808,-2.930,2.075
0.085,0.297,0.943,1.892,-2.563,1.709
0.083,0.298,0.942,1.831,-2.075,1.465
0.081,0.297,0.943,1.892,-1.404,1.526
0.077,0.296,0.939,1.953,-1.160,1.160
0.082,0.296,0.940,2.136,-1.648,0.732
0.085,0.299,0.938,2.136,-1.526,0.549
0.088,0.300,0.940,2.380,-1.587,0.305
0.088,0.302,0.942,2.686,-1.709,0.244
0.091,0.299,0.942,2.625,-1.343,0.671
0.090,0.302,0.944,3.235,-0.793,1.038
0.083,0.303,0.938,4.639,-0.488,0.793
0.083,0.304,0.933,6.287,-0.244,0.244
0.083,0.301,0.927,7.690,-0.671,-0.366
0.081,0.302,0.929,9.583,-1.465,-0.916
0.085,0.296,0.933,10.986,-1.465,-1.648
0.086,0.293,0.935,11.414,-1.465,-2.014
0.088,0.289,0.936,11.780,-0.793,-2.014
0.086,0.290,0.939,12.756,0.305,-1.953
0.085,0.293,0.933,14.526,1.221,-2.136
0.087,0.287,0.935,17.517,1.465,-2.869
0.090,0.289,0.933,21.912,1.892,-3.540
0.087,0.278,0.932,26.978,2.991,-4.578
0.090,0.268,0.926,35.583,4.028,-5.859
0.095,0.233,0.938,51.147,5.615,-8.240
0.098,0.192,0.949,73.669,7.874,-11.780
0.109,0.103,0.984,106.018,10.864,-17.090
0.119,0.012,1.027,156.616,16.113,-26.184
0.125,-0.141,1.073,223.999,23.132,-39.490
0.132,-0.361,1.146,307.922,30.090,-55.786
0.154,-0.595,1.264,403.931,34.851,-71.777
0.186,-0.873,1.384,505.310,36.377,-85.510
0.194,-1.220,1.535,616.516,37.292,-98.816
0.158,-1.600,1.652,729.004,38.635,-107.849
0.133,-1.886,1.691,827.637,35.767,-104.431
0.099,-2.133,1.719,904.175,22.888,-94.849
0.031,-2.390,1.674,952.820,-1.221,-81.360
0.018,-2.483,1.546,960.266,-28.870,-52.490
-0.008,-2.496,1.306,931.091,-52.551,-9.216
0.001,-2.449,1.035,872.803,-67.688,40.955
0.021,-2.302,0.829,793.640,-70.801,95.520
0.079,-1.980,0.732,709.717,-65.430,141.296
0.068,-1.649,0.565,633.667,-52.063,167.786
0.026,-1.395,0.381,561.340,-37.537,171.753
-0.016,-1.224,0.228,492.310,-29.114,162.354
-0.092,-1.088,0.085,422.852,-27.954,151.184
-0.120,-0.977,-0.022,343.994,-31.982,147.339
-0.117,-0.848,-0.049,262.573,-40.039,151.855
-0.209,-0.700,-0.056,192.505,-50.232,160.645
-0.246,-0.520,-0.030,138.916,-62.195,165.710
-0.239,-0.393,0.039,101.440,-76.050,165.466
-0.181,-0.200,0.137,78.430,-92.041,162.354
-0.109,0.096,0.243,66.040,-107.483,160.278
0.018,0.322,0.390,50.842,-119.019,154.297
0.104,0.552,0.477,29.907,-120.667,143.311
0.178,0.673,0.550,0.732,-113.098,128.723
0.259,0.620,0.629,-35.217,-101.868,108.459
0.366,0.568,0.750,-65.857,-84.351,83.618
0.552,0.747,0.984,-83.008,-60.364,52.734
0.601,0.497,1.063,-100.769,-30.823,12.146
0.574,0.012,0.757,-108.459,6.531,-15.015
0.523,-0.306,0.402,-89.294,34.180,-22.278
0.500,-0.507,0.130,-52.063,44.739,-21.851
0.541,-0.615,0.001,-12.939,43.701,-18.982
0.543,-0.652,-0.182,20.386,43.030,-17.944
0.549,-0.724,-0.334,29.236,44.312,-18.860
0.519,-0.794,-0.468,22.949,46.265,-18.982
0.495,-0.868,-0.590,13.916,46.631,-18.799
0.464,-0.933,-0.664,6.409,44.067,-18.250
0.440,-0.981,-0.706,5.127,38.757,-18.311
0.416,-1.006,-0.747,8.240,31.677,-18.311
0.413,-0.994,-0.761,12.390,21.179,-15.869
0.414,-0.948,-0.737,16.357,7.935,-12.024
0.420,-0.888,-0.671,18.066,-5.432,-8.972
0.438,-0.854,-0.589,14.832,-16.174,-8.606
0.448,-0.837,-0.507,6.042,-22.034,-9.155
0.462,-0.848,-0.423,-5.737,-24.353,-8.606
0.484,-0.863,-0.318,-16.541,-24.475,-7.324
0.497,-0.869,-0.208,-21.545,-22.278,-5.859
0.512,-0.874,-0.103,-19.653,-17.517,-6.348
0.532,-0.848,-0.054,-13.184,-10.925,-8.301
0.525,-0.824,-0.054,-8.423,-3.357,-8.667
0.522,-0.785,-0.068,-7.935,3.723,-6.897
0.507,-0.764,-0.106,-10.193,9.949,-4.883
0.498,-0.761,-0.155,-14.832,14.648,-3.296
0.501,-0.763,-0.201,-19.592,17.334,-2.380
0.499,-0.785,-0.251,-18.250,18.616,-3.235
0.501,-0.792,-0.294,-13.855,17.822,-3.967
0.507,-0.796,-0.327,-8.667,15.625,-4.089
0.513,-0.792,-0.354,-3.662,13.184,-3.967
0.501,-0.789,-0.368,1.099,10.681,-4.272
0.497,-0.811,-0.387,3.479,8.118,-5.249
0.483,-0.833,-0.400,2.380,4.944,-5.798
0.481,-0.853,-0.374,0.061,1.648,-5.310
0.474,-0.865,-0.350,-2.014,-0.916,-4.944
0.475,-0.881,-0.330,-4.822,-2.686,-4.272
0.474,-0.881,-0.307,-6.653,-3.967,-2.747
0.468,-0.868,-0.292,-6.226,-5.127,-0.671
0.479,-0.856,-0.266,-3.784,-6.409,0.488
0.490,-0.834,-0.253,-0.732,-7.385,1.465
0.494,-0.813,-0.245,1.343,-6.592,2.075
0.498,-0.793,-0.247,0.977,-3.845,2.441
0.487,-0.783,-0.255,-0.916,-0.549,2.930
0.480,-0.784,-0.275,-3.479,2.625,3.052
0.473,-0.789,-0.291,-4.944,4.395,2.319
0.464,-0.796,-0.310,-4.395,4.517,1.465
0.471,-0.810,-0.320,-2.319,3.418,0.305
0.475,-0.814,-0.322,0.732,1.709,-0.732
0.477,-0.818,-0.320,3.540,0.244,-1.526
0.483,-0.817,-0.317,5.981,-0.549,-1.953
0.480,-0.823,-0.314,7.141,-0.916,-2.258
0.483,-0.833,-0.310,6.531,-1.282,-2.258
0.479,-0.847,-0.303,4.700,-1.404,-1.709
0.482,-0.858,-0.292,2.625,-1.404,-0.977
0.476,-0.865,-0.296,1.221,-1.160,-0.488
0.471,-0.869,-0.298,0.366,-1.282,0.183

0.054,-0.026,0.987,0.610,0.366,3.540
0.053,-0.029,0.991,-2.319,-1.160,3.357
0.052,-0.029,0.987,-2.808,0.854,3.418
0.050,-0.029,0.985,-1.648,1.038,3.601
0.049,-0.029,0.987,-0.793,-1.221,2.869
0.047,-0.035,0.989,2.258,-0.366,2.197
0.048,-0.033,0.988,3.601,-1.282,1.953
0.046,-0.033,0.993,6.165,0.244,2.197
0.047,-0.029,0.992,5.554,-2.319,2.075
0.048,-0.027,0.993,5.432,-1.343,1.648
0.048,-0.029,0.990,7.141,0.671,1.526
0.048,-0.032,0.989,7.019,-1.038,1.526
0.049,-0.029,0.990,5.249,-2.441,1.099
0.052,-0.032,0.991,4.822,0.427,1.221
0.048,-0.036,0.986,4.211,0.305,1.770
0.047,-0.035,0.985,2.380,-2.075,1.648
0.048,-0.033,0.985,1.343,-2.197,1.160
0.048,-0.036,0.985,3.052,-0.061,1.221
0.049,-0.041,0.988,3.235,-2.075,1.099
0.049,-0.042,0.990,2.991,-3.174,0.549
0.047,-0.043,0.990,5.188,-0.610,0.732
0.049,-0.043,0.988,6.042,-1.099,1.404
0.047,-0.037,0.990,5.127,-2.625,1.343
0.048,-0.033,0.987,6.042,-0.183,1.099
0.049,-0.027,0.990,7.080,0.610,1.465
0.046,-0.024,0.984,6.531,-0.977,1.343
0.045,-0.019,0.988,5.615,-2.625,0.549
0.045,-0.016,0.983,6.714,-0.366,-0.183
0.045,-0.013,0.982,8.240,0.183,-0.183
0.041,-0.019,0.986,7.996,-0.854,-1.038
0.044,-0.029,0.991,11.047,0.549,-2.136
0.043,-0.076,0.995,17.334,-1.038,-4.517
0.043,-0.195,1.022,42.419,1.587,-10.498
0.056,-0.401,1.075,99.487,0.732,-24.170
0.039,-0.652,1.190,200.684,3.113,-47.668
0.042,-1.008,1.366,345.032,5.188,-81.848
0.046,-1.382,1.569,522.400,8.484,-120.483
0.079,-1.699,1.742,721.802,12.024,-154.663
0.103,-1.972,1.836,911.682,5.981,-174.072
0.083,-2.186,1.859,1056.152,-7.385,-173.645
0.005,-2.654,1.732,1124.817,-32.471,-155.579
0.001,-2.708,1.596,1083.191,-59.143,-97.229
-0.020,-2.913,1.192,1004.944,-68.909,-25.879
-0.100,-2.881,0.678,932.495,-60.547,31.250
-0.202,-2.662,0.149,838.806,-46.509,114.441
-0.350,-2.159,-0.377,716.736,-27.527,196.594
-0.552,-1.574,-0.769,598.877,-26.184,248.352
-0.622,-1.103,-0.876,505.554,-49.622,256.592
-0.735,-0.545,-0.916,430.420,-85.815,240.601
-0.756,-0.126,-0.882,363.953,-127.502,210.571
-0.698,0.230,-0.696,306.580,-170.715,179.626
-0.603,0.476,-0.475,250.122,-206.726,154.419
-0.443,0.620,-0.181,195.068,-231.445,130.798
-0.255,0.702,0.151,159.363,-243.591,101.685
-0.097,0.729,0.375,134.644,-237.427,67.383
0.008,0.642,0.544,103.271,-221.558,34.180
0.147,0.445,0.734,60.242,-204.041,6.287
0.254,0.186,0.906,10.742,-179.565,-9.033
0.333,-0.062,0.968,-38.086,-145.569,-12.573
0.359,-0.322,0.979,-73.914,-117.371,-18.555
0.388,-0.577,0.965,-93.323,-91.797,-19.653
0.413,-0.791,0.939,-91.125,-70.007,-19.592
0.444,-0.932,0.874,-72.021,-49.988,-19.470
0.482,-1.013,0.756,-43.518,-30.640,-18.982
0.490,-1.029,0.613,-17.456,-11.169,-15.686
0.493,-0.999,0.461,-1.160,6.042,-9.277
0.480,-0.949,0.292,5.859,22.156,-3.357
0.430,-0.903,0.100,8.362,37.598,-0.488
0.388,-0.869,-0.070,7.019,47.791,1.282
0.356,-0.844,-0.225,2.991,52.673,1.831
0.337,-0.831,-0.365,-1.709,52.734,2.014
0.340,-0.816,-0.473,-3.418,51.270,2.441
0.327,-0.806,-0.580,-2.686,50.354,2.502
0.329,-0.781,-0.657,-4.883,46.448,3.540
0.321,-0.769,-0.723,-8.179,41.260,3.967
0.316,-0.750,-0.755,-10.071,34.729,3.052
0.311,-0.751,-0.755,-9.705,27.283,0.732
0.319,-0.758,-0.751,-8.301,19.836,-2.258
0.327,-0.747,-0.739,-8.362,13.000,-3.967
0.339,-0.753,-0.705,-8.728,6.104,-4.028
0.349,-0.758,-0.649,-9.888,-0.366,-2.869
0.360,-0.760,-0.582,-11.047,-5.432,-1.465
0.370,-0.762,-0.529,-11.108,-9.521,-1.038
0.385,-0.758,-0.470,-8.850,-13.245,-1.465
0.396,-0.748,-0.412,-4.517,-15.625,-3.052
0.403,-0.750,-0.362,-2.014,-16.602,-4.944
0.421,-0.770,-0.317,-1.770,-16.785,-6.470
0.428,-0.791,-0.286,-2.014,-15.076,-7.385
0.437,-0.821,-0.277,-3.418,-12.024,-7.812
0.435,-0.839,-0.276,-5.554,-8.301,-7.019
0.424,-0.855,-0.292,-6.836,-4.211,-5.798
0.414,-0.861,-0.311,-7.568,-1.038,-5.066
0.397,-0.853,-0.333,-7.812,1.343,-4.883
0.390,-0.846,-0.342,-6.958,2.441,-4.883
0.384,-0.842,-0.356,-6.592,3.235,-4.944
0.375,-0.836,-0.370,-6.897,4.395,-4.578
0.367,-0.833,-0.383,-7.507,4.944,-3.906
0.363,-0.829,-0.396,-9.094,5.066,-3.235
0.364,-0.829,-0.407,-10.559,5.005,-2.930
0.373,-0.833,-0.414,-10.132,4.639,-3.174
0.372,-0.832,-0.424,-7.202,3.906,-3.479
0.369,-0.833,-0.424,-3.601,3.296,-4.272
0.368,-0.845,-0.423,0.671,2.563,-5.066
0.364,-0.857,-0.416,3.357,1.770,-5.798
0.364,-0.858,-0.410,3.113,0.671,-5.432
0.360,-0.856,-0.406,0.427,-0.122,-4.089
0.361,-0.851,-0.395,-2.502,-0.977,-2.014
0.361,-0.860,-0.390,-5.432,-2.441,-0.244
0.367,-0.869,-0.374,-6.897,-3.296,0.732
0.369,-0.879,-0.361,-6.714,-3.235,0.793
0.370,-0.889,-0.349,-5.432,-2.808,0.305
0.371,-0.898,-0.350,-3.418,-1.953,0.122
0.374,-0.892,-0.354,-1.221,-1.465,0.305
0.375,-0.880,-0.360,0.366,-0.793,1.465
0.373,-0.863,-0.365,0.671,0.183,2.930
0.371,-0.848,-0.368,-0.854,1.160,4.272
0.365,-0.836,-0.373,-3.052,1.831,5.493
0.365,-0.823,-0.377,-5.554,2.136,6.287
0.361,-0.818,-0.379,-7.141,1.953,6.470

0.082,0.172,1.150,12.146,3.723,3.906
0.099,0.146,1.142,18.677,3.418,0.793
0.110,0.143,1.131,24.597,1.831,-0.732
0.123,0.141,1.119,31.189,3.235,-1.038
0.129,0.134,1.106,37.109,6.836,-1.221
0.129,0.132,1.094,41.504,10.071,-1.099
0.118,0.134,1.077,41.443,12.878,-0.916
0.111,0.134,1.046,39.734,15.808,-0.183
0.111,0.139,1.018,35.400,17.395,0.488
0.100,0.135,1.002,32.166,17.639,1.526
0.100,0.138,0.983,28.748,15.930,1.648
0.105,0.140,0.974,27.222,14.526,1.709
0.112,0.132,0.974,28.564,13.245,1.038
0.115,0.130,0.966,30.762,12.329,0.244
0.124,0.111,0.962,33.508,11.536,-0.305
0.121,0.121,0.962,35.828,12.573,-0.366
0.125,0.109,0.966,36.133,12.207,-0.305
0.120,0.117,0.965,33.752,12.756,-0.488
0.118,0.114,0.960,27.649,12.390,-0.854
0.119,0.109,0.954,22.583,11.658,-1.770
0.121,0.099,0.949,20.569,10.315,-2.625
0.126,0.088,0.948,20.691,8.667,-3.479
0.127,0.078,0.945,21.484,6.836,-3.784
0.132,0.072,0.940,23.865,6.226,-3.601
0.134,0.062,0.941,28.198,5.310,-3.967
0.138,0.059,0.941,33.691,4.272,-4.211
0.142,0.048,0.946,40.283,3.784,-4.822
0.147,0.049,0.966,45.349,3.479,-4.700
0.147,0.059,0.977,48.523,3.601,-4.578
0.148,0.063,0.991,51.819,4.883,-4.700
0.150,0.069,1.003,55.237,5.737,-5.127
0.155,0.062,1.044,59.143,6.470,-6.531
0.183,0.050,1.095,64.819,7.263,-9.521
0.198,-0.010,1.152,78.247,11.230,-16.052
0.225,-0.193,1.280,108.337,17.456,-25.879
0.240,-0.487,1.462,168.152,27.466,-39.429
0.257,-0.678,1.667,265.320,40.405,-53.894
0.214,-0.948,1.888,391.235,54.932,-69.275
0.209,-1.243,2.086,533.142,66.162,-85.938
0.226,-1.598,2.247,682.068,72.571,-101.624
0.183,-2.024,2.322,820.862,69.092,-114.502
0.222,-2.351,2.212,940.491,61.890,-115.051
0.157,-2.538,1.879,1017.761,44.739,-99.487
0.066,-2.619,1.443,1043.457,27.161,-53.589
0.018,-2.591,0.978,1002.380,12.085,17.212
-0.031,-2.382,0.570,910.706,3.784,92.346
-0.062,-2.013,0.272,805.237,2.014,151.001
-0.064,-1.500,0.056,701.294,0.671,192.566
-0.169,-1.057,-0.154,604.675,-2.869,213.135
-0.293,-0.731,-0.320,520.935,-7.874,218.628
-0.380,-0.346,-0.447,443.298,-20.447,215.210
-0.487,-0.087,-0.455,371.216,-43.091,206.299
-0.533,0.101,-0.417,296.326,-76.477,194.092
-0.567,0.282,-0.315,230.591,-111.023,181.946
-0.503,0.475,-0.155,172.241,-147.827,168.213
-0.345,0.674,0.011,115.112,-177.856,153.381
-0.156,0.797,0.231,58.472,-200.928,135.437
0.029,0.818,0.439,7.568,-206.909,115.540
0.228,0.767,0.688,-35.767,-194.336,92.407
0.416,0.654,0.795,-76.050,-163.086,69.031
0.548,0.511,0.950,-105.103,-121.033,47.241
0.662,0.505,1.515,-114.868,-75.867,22.156
0.820,0.375,1.752,-116.760,-6.287,-10.925
0.766,0.080,1.471,-118.591,64.514,-35.522
0.571,-0.403,0.852,-107.422,91.980,-40.771
0.521,-0.587,0.321,-85.510,90.149,-34.119
0.578,-0.758,0.118,-51.392,69.580,-31.860
0.646,-0.816,-0.021,-14.832,54.749,-31.250
0.689,-0.833,-0.154,10.986,45.837,-30.396
0.689,-0.844,-0.286,22.827,44.800,-24.597
0.656,-0.866,-0.393,20.630,48.401,-17.883
0.628,-0.883,-0.487,17.212,49.377,-12.207
0.580,-0.902,-0.607,21.667,52.246,-7.874
0.527,-0.902,-0.701,28.748,49.316,-4.700
0.501,-0.883,-0.767,36.194,39.978,-2.441
0.476,-0.844,-0.797,41.626,28.198,0.305
0.467,-0.802,-0.781,41.504,12.146,2.136
0.465,-0.777,-0.729,39.246,-2.869,3.113
0.474,-0.769,-0.667,33.997,-16.663,3.235
0.496,-0.767,-0.580,26.489,-27.893,2.441
0.520,-0.787,-0.490,17.944,-34.546,1.953
0.549,-0.802,-0.405,8.545,-35.950,2.747
0.559,-0.810,-0.350,0.061,-32.654,4.456
0.558,-0.811,-0.309,-6.775,-25.940,6.531
0.550,-0.804,-0.282,-11.658,-20.264,8.362
0.543,-0.797,-0.255,-12.268,-16.479,8.972
0.525,-0.786,-0.211,-7.019,-14.893,8.179
0.533,-0.782,-0.178,2.380,-13.794,5.432
0.548,-0.762,-0.177,11.536,-12.146,2.625
0.564,-0.754,-0.177,16.968,-10.193,0.916
0.589,-0.741,-0.175,17.151,-7.996,0.854
0.608,-0.734,-0.189,14.282,-5.066,1.282
0.604,-0.735,-0.214,10.132,-1.282,2.136
0.600,-0.739,-0.254,7.690,2.136,2.808
0.589,-0.743,-0.302,6.836,4.211,3.113
0.580,-0.742,-0.344,7.324,4.761,2.869
0.571,-0.738,-0.371,8.240,3.906,2.441
0.560,-0.733,-0.392,8.606,2.075,1.831
0.560,-0.733,-0.403,8.423,-0.732,0.977
0.564,-0.732,-0.400,8.606,-3.967,0.244
0.564,-0.735,-0.388,8.850,-6.897,-0.122
0.567,-0.746,-0.366,9.033,-9.521,-0.610
0.569,-0.756,-0.354,8.789,-10.010,-1.221
0.569,-0.766,-0.350,8.057,-9.094,-0.916
0.573,-0.776,-0.344,6.409,-7.996,-0.366
0.567,-0.776,-0.343,4.517,-6.042,0.671
0.564,-0.770,-0.344,3.052,-4.456,2.197
0.560,-0.761,-0.342,1.892,-3.357,3.479
0.555,-0.759,-0.342,1.343,-2.441,3.906
0.556,-0.753,-0.342,2.686,-2.136,3.662
0.557,-0.754,-0.341,4.395,-1.892,3.113
0.559,-0.753,-0.340,4.822,-1.709,2.930
0.561,-0.760,-0.338,4.395,-1.221,3.052
0.568,-0.767,-0.339,3.906,-1.709,3.113
0.570,-0.777,-0.341,4.150,-2.014,3.540
0.575,-0.779,-0.346,4.456,-1.709,3.479
0.575,-0.783,-0.352,4.517,-0.916,3.174
0.569,-0.782,-0.357,4.211,-0.671,3.601
0.570,-0.778,-0.364,3.479,-0.732,4.150

0.130,0.274,0.934,0.671,0.122,0.305
0.133,0.274,0.937,0.488,0.183,0.854
0.126,0.272,0.934,0.549,0.427,0.977
0.124,0.271,0.934,2.319,1.038,1.160
0.127,0.270,0.930,3.174,-0.366,0.793
0.124,0.269,0.929,5.371,-0.244,1.038
0.126,0.271,0.926,6.287,-0.732,1.221
0.126,0.273,0.924,6.287,-0.916,1.343
0.121,0.275,0.919,6.042,-1.282,1.404
0.125,0.286,0.919,5.493,-2.441,1.770
0.120,0.286,0.921,5.005,-1.282,1.831
0.125,0.290,0.920,4.150,-3.296,1.831
0.120,0.293,0.922,5.737,-1.038,1.709
0.119,0.293,0.923,5.066,-2.930,0.977
0.116,0.290,0.918,5.798,-2.625,0.488
0.120,0.294,0.921,6.165,-4.150,0.122
0.120,0.290,0.922,6.165,-3.296,-0.183
0.121,0.290,0.923,5.188,-4.822,-0.244
0.121,0.287,0.928,6.775,-3.540,-0.427
0.123,0.288,0.932,7.202,-4.944,-0.488
0.120,0.288,0.934,9.216,-4.333,-0.427
0.124,0.292,0.940,12.329,-3.296,-0.244
0.122,0.299,0.942,13.916,-4.028,-0.549
0.124,0.300,0.936,15.442,-1.709,-0.793
0.123,0.302,0.940,15.564,-2.014,-1.526
0.117,0.301,0.936,16.174,-1.648,-2.197
0.126,0.297,0.931,16.602,-1.587,-3.174
0.122,0.294,0.928,18.494,-0.916,-4.028
0.122,0.291,0.931,22.766,-0.977,-4.456
0.140,0.285,0.945,30.273,0.305,-5.188
0.141,0.278,0.976,42.053,2.319,-6.348
0.139,0.231,1.032,59.204,5.554,-9.521
0.179,0.146,1.124,87.830,12.390,-15.381
0.200,-0.029,1.258,141.663,21.423,-28.015
0.191,-0.180,1.406,226.685,35.767,-44.739
0.214,-0.382,1.541,331.177,51.270,-62.622
0.252,-0.588,1.748,453.613,62.744,-79.712
0.259,-0.801,1.922,586.853,71.228,-95.215
0.251,-1.177,2.097,722.229,77.332,-113.159
0.283,-1.550,2.203,864.197,77.637,-133.545
0.273,-1.809,2.112,998.901,75.012,-148.193
0.190,-2.009,1.889,1097.290,64.148,-146.118
0.093,-2.099,1.514,1134.216,41.382,-121.338
0.002,-2.132,1.133,1107.666,13.489,-73.608
-0.042,-2.114,0.773,1044.617,-10.681,-18.982
-0.034,-1.949,0.430,964.172,-22.705,26.062
0.003,-1.610,0.113,878.662,-27.771,64.697
-0.093,-1.359,-0.128,778.381,-33.081,96.619
-0.151,-1.144,-0.379,680.115,-38.208,111.877
-0.211,-0.949,-0.516,596.313,-49.683,115.845
-0.277,-0.674,-0.588,510.437,-69.214,113.281
-0.308,-0.596,-0.608,416.565,-94.116,112.122
-0.270,-0.561,-0.551,309.570,-122.986,117.004
-0.304,-0.436,-0.489,209.778,-146.423,129.883
-0.230,-0.332,-0.318,129.578,-166.565,142.944
-0.165,-0.130,-0.079,85.876,-185.913,155.884
-0.081,0.061,0.160,70.313,-196.960,154.907
0.028,0.227,0.315,65.308,-197.998,139.038
0.132,0.351,0.440,55.847,-189.697,116.394
0.236,0.389,0.536,37.476,-171.143,89.905
0.308,0.384,0.582,5.310,-145.081,68.726
0.369,0.350,1.218,-42.908,-115.356,55.054
0.676,0.587,2.282,-133.606,-63.538,49.316
1.231,0.416,2.124,-234.192,28.870,41.260
0.654,-0.156,0.998,-221.436,126.221,12.268
0.350,-0.560,0.169,-131.531,143.677,-14.954
0.477,-0.676,-0.214,-51.697,104.370,-16.907
0.515,-0.636,-0.382,4.150,63.538,-7.080
0.581,-0.638,-0.469,28.992,32.410,-0.305
0.588,-0.635,-0.572,40.344,20.874,1.221
0.571,-0.626,-0.725,40.527,22.888,-0.366
0.532,-0.628,-0.854,34.546,26.428,-0.977
0.501,-0.657,-0.929,25.696,23.926,-0.549
0.485,-0.693,-0.963,21.912,15.381,-0.977
0.485,-0.723,-0.965,23.376,3.662,-2.197
0.481,-0.728,-0.926,24.902,-8.972,-3.235
0.490,-0.713,-0.844,23.743,-21.301,-3.479
0.519,-0.687,-0.691,18.555,-32.593,-2.380
0.543,-0.661,-0.473,8.972,-39.673,0.549
0.583,-0.676,-0.232,-7.446,-38.574,3.296
0.612,-0.711,-0.077,-20.325,-28.137,3.601
0.616,-0.760,-0.042,-21.912,-13.184,0.427
0.593,-0.788,-0.110,-15.076,0.671,-2.869
0.553,-0.807,-0.219,-7.996,7.690,-4.211
0.518,-0.806,-0.331,-2.441,8.606,-3.662
0.497,-0.802,-0.436,0.244,7.019,-1.099
0.493,-0.784,-0.490,1.648,3.113,1.953
0.500,-0.763,-0.535,3.601,0.671,4.395
0.501,-0.738,-0.566,3.479,0.000,6.042
0.500,-0.719,-0.589,2.563,0.305,6.958
0.503,-0.706,-0.591,2.014,-0.061,7.385
0.518,-0.700,-0.562,1.587,-1.831,7.080
0.532,-0.711,-0.512,2.136,-4.150,6.714
0.560,-0.684,-0.473,0.183,-4.028,6.409
0.551,-0.697,-0.465,-0.305,-2.747,5.615
0.555,-0.696,-0.450,2.930,-2.625,4.578
0.559,-0.697,-0.432,4.272,-3.662,3.723
0.562,-0.699,-0.426,4.150,-4.333,3.418
0.564,-0.704,-0.427,3.662,-4.578,3.418
0.560,-0.713,-0.433,2.808,-4.822,3.174
0.550,-0.722,-0.443,1.526,-5.127,2.625
0.543,-0.728,-0.456,-0.122,-4.883,2.563
0.537,-0.735,-0.477,-2.686,-4.028,2.808
0.526,-0.735,-0.497,-4.700,-3.052,3.906
0.528,-0.724,-0.498,-5.127,-2.319,5.005
0.524,-0.716,-0.493,-4.272,-2.625,5.798
0.532,-0.705,-0.480,-3.479,-2.869,5.676
0.530,-0.698,-0.468,-2.747,-2.563,5.005
0.531,-0.697,-0.462,-2.258,-1.465,4.211
0.533,-0.704,-0.458,-2.380,-0.977,3.357
0.532,-0.719,-0.458,-2.563,-1.343,2.808
0.534,-0.728,-0.453,-2.625,-2.441,2.869
0.542,-0.735,-0.447,-2.075,-3.235,2.930
0.550,-0.730,-0.439,-0.671,-3.357,3.113
0.552,-0.725,-0.438,1.038,-3.174,2.930
0.551,-0.717,-0.437,1.953,-2.991,2.808
0.552,-0.715,-0.442,1.892,-2.808,2.563
0.546,-0.718,-0.446,1.099,-2.686,2.747
0.544,-0.724,-0.454,0.061,-2.502,3.052

0.121,0.276,0.965,0.000,-5.554,2.258
0.124,0.273,0.971,1.099,-5.798,2.258
0.126,0.269,0.971,3.479,-4.700,1.770
0.129,0.261,0.966,6.226,-2.197,1.343
0.123,0.260,0.954,8.789,-0.793,1.221
0.119,0.259,0.954,10.559,0.061,1.404
0.120,0.260,0.953,11.230,0.854,1.831
0.120,0.266,0.951,10.864,1.465,2.380
0.119,0.270,0.949,10.620,1.587,2.991
0.114,0.271,0.945,10.254,1.709,3.174
0.116,0.272,0.940,10.010,1.343,2.747
0.113,0.271,0.937,10.437,1.099,2.625
0.109,0.271,0.935,11.108,0.793,2.075
0.111,0.270,0.933,11.169,-0.183,2.136
0.110,0.271,0.933,11.719,-0.732,2.319
0.112,0.274,0.937,12.024,-1.160,2.502
0.112,0.276,0.938,12.512,-1.160,2.563
0.113,0.275,0.936,12.817,-1.526,2.502
0.113,0.278,0.936,12.634,-1.648,2.380
0.115,0.281,0.931,11.719,-1.770,2.258
0.111,0.281,0.927,9.949,-1.831,2.258
0.114,0.275,0.926,7.996,-2.319,2.136
0.110,0.276,0.926,7.874,-3.174,1.648
0.116,0.280,0.933,7.141,-3.906,1.770
0.100,0.284,0.942,6.348,-4.089,1.953
0.127,0.286,0.945,5.188,-3.418,1.648
0.111,0.285,0.958,5.493,-2.869,1.160
0.115,0.292,0.960,6.348,-1.770,0.977
0.111,0.295,0.968,8.301,-0.610,0.732
0.111,0.310,0.977,11.169,0.122,0.061
0.118,0.319,0.995,14.893,1.526,-0.854
0.108,0.319,1.017,20.996,2.747,-3.357
0.114,0.262,1.073,34.302,5.005,-7.019
0.090,0.125,1.139,63.293,7.446,-15.320
0.062,-0.135,1.245,118.652,8.667,-31.006
0.055,-0.408,1.377,209.778,9.033,-50.232
0.031,-0.655,1.553,335.693,4.395,-70.068
0.020,-1.009,1.768,497.925,-4.272,-89.417
0.102,-1.408,2.083,694.885,-13.489,-111.084
0.152,-1.694,2.352,898.254,-23.437,-129.639
0.134,-1.758,2.432,1063.660,-32.654,-132.874
-0.013,-1.739,2.267,1177.307,-62.561,-130.981
-0.149,-1.810,1.970,1226.379,-97.534,-115.540
-0.116,-1.955,1.682,1210.205,-123.413,-80.383
-0.018,-1.928,1.444,1159.241,-136.902,-27.466
0.040,-1.622,1.193,1095.337,-143.616,23.010
0.093,-1.140,0.888,998.474,-137.390,58.655
0.103,-0.729,0.526,864.746,-116.760,82.947
0.113,-0.426,0.157,687.988,-81.726,97.717
-0.028,-0.332,-0.212,487.488,-35.950,105.835
-0.253,-0.452,-0.553,294.800,3.601,105.957
-0.358,-0.603,-0.870,136.353,23.499,108.337
-0.409,-0.799,-1.009,42.419,8.972,119.141
-0.389,-0.956,-0.961,21.790,-23.743,124.451
-0.353,-0.726,-0.844,45.715,-72.571,139.526
-0.228,-0.542,-0.648,77.209,-121.460,157.898
-0.138,-0.321,-0.517,107.544,-152.893,161.682
-0.047,-0.159,-0.321,127.075,-171.692,158.325
0.044,-0.064,-0.116,125.549,-174.805,148.376
0.063,0.053,0.059,104.248,-164.062,135.864
0.160,0.115,0.195,69.153,-143.860,124.817
0.190,0.054,0.305,23.499,-121.216,106.567
0.221,-0.012,0.383,-22.034,-97.961,88.074
0.262,-0.132,0.429,-56.580,-78.552,72.693
0.297,-0.247,0.449,-74.402,-64.453,60.364
0.369,-0.329,0.632,-69.641,-54.138,49.988
0.482,-0.387,0.778,-43.823,-38.330,39.185
0.594,-0.425,0.902,-27.344,-15.137,28.259
0.715,-0.430,0.686,-20.447,10.193,19.226
0.660,-0.498,0.318,-25.513,31.067,13.733
0.593,-0.588,0.049,-35.583,37.048,14.709
0.574,-0.660,-0.153,-44.617,36.560,18.311
0.522,-0.720,-0.346,-49.988,34.851,20.142
0.496,-0.760,-0.505,-41.199,29.602,18.555
0.473,-0.773,-0.640,-23.621,19.165,15.808
0.473,-0.758,-0.709,-10.864,5.310,13.794
0.481,-0.745,-0.728,-3.967,-8.301,11.780
0.489,-0.757,-0.706,-1.526,-18.921,8.911
0.511,-0.779,-0.659,1.343,-25.024,6.165
0.518,-0.840,-0.612,7.874,-26.428,3.784
0.517,-0.869,-0.555,11.108,-26.062,4.150
0.519,-0.862,-0.471,10.132,-23.743,7.141
0.514,-0.832,-0.363,8.179,-20.508,10.864
0.516,-0.804,-0.271,5.310,-15.198,13.184
0.514,-0.773,-0.197,1.160,-8.789,13.550
0.504,-0.770,-0.161,-1.648,-3.113,12.085
0.497,-0.773,-0.177,-3.845,1.099,10.071
0.483,-0.781,-0.209,-5.615,3.235,8.728
0.456,-0.795,-0.262,-4.883,2.930,7.751
0.448,-0.800,-0.327,-3.723,1.282,7.019
0.443,-0.797,-0.383,-0.610,-0.610,7.446
0.446,-0.793,-0.435,3.174,-2.258,7.324
0.460,-0.787,-0.469,8.301,-3.662,6.653
0.465,-0.785,-0.494,14.587,-4.639,5.615
0.474,-0.786,-0.503,17.639,-6.226,4.822
0.486,-0.779,-0.478,19.104,-8.301,3.967
0.499,-0.783,-0.445,19.165,-9.766,3.235
0.509,-0.785,-0.399,16.724,-10.376,2.747
0.519,-0.791,-0.356,12.756,-9.888,2.747
0.527,-0.805,-0.329,8.606,-8.362,3.357
0.528,-0.814,-0.311,3.662,-6.714,4.883
0.526,-0.812,-0.316,-0.671,-4.578,6.348
0.520,-0.809,-0.322,-3.296,-2.930,7.141
0.522,-0.799,-0.343,-2.991,-1.160,7.141
0.515,-0.786,-0.366,-0.488,1.038,6.897
0.508,-0.773,-0.390,0.916,2.747,7.080
0.500,-0.759,-0.410,0.610,3.906,7.629
0.492,-0.749,-0.421,-0.793,4.822,8.118
0.487,-0.752,-0.421,-2.136,4.578,8.667
0.488,-0.754,-0.412,-3.235,2.747,9.094
0.490,-0.761,-0.399,-3.479,1.038,8.362
0.494,-0.771,-0.379,-3.662,-0.793,7.019
0.502,-0.778,-0.366,-3.174,-2.258,5.737
0.509,-0.786,-0.358,-2.808,-2.625,4.944
0.517,-0.790,-0.352,-2.747,-2.563,5.188
0.516,-0.795,-0.355,-1.648,-1.709,5.676
0.516,-0.797,-0.365,-0.671,0.061,6.165
0.517,-0.798,-0.372,-0.244,1.709,6.592
0.508,-0.794,-0.376,-0.671,2.625,7.019

-0.013,-0.026,0.973,5.615,3.540,-5.066
0.107,-0.073,0.961,8.789,1.526,-9.521
0.105,-0.090,0.980,9.033,0.183,-10.681
0.064,-0.050,0.970,3.113,-2.014,-3.723
0.050,-0.038,0.959,2.563,-3.418,-2.319
0.068,-0.061,0.960,5.493,-4.822,-3.357
0.064,-0.072,0.960,8.728,-6.104,-3.601
0.063,-0.068,0.967,11.292,-6.592,-3.296
0.056,-0.068,0.973,12.756,-7.080,-2.136
0.055,-0.069,0.971,13.367,-7.263,-1.099
0.053,-0.070,0.967,14.465,-7.507,-0.427
0.047,-0.053,0.978,16.541,-8.362,-0.244
0.047,-0.044,0.967,16.785,-9.583,-1.282
0.050,-0.053,0.965,16.357,-9.949,-3.296
0.051,-0.044,0.968,17.639,-10.193,-5.371
0.059,-0.049,0.970,20.447,-10.193,-6.897
0.056,-0.049,0.965,22.156,-10.315,-7.446
0.052,-0.044,0.994,21.545,-10.498,-7.141
0.045,-0.051,0.989,19.714,-10.132,-6.409
0.044,-0.052,0.994,18.188,-8.911,-6.287
0.045,-0.055,0.985,16.968,-8.667,-6.409
0.052,-0.068,0.996,16.052,-8.911,-6.775
0.049,-0.070,1.004,15.076,-8.728,-6.470
0.051,-0.074,1.010,14.709,-7.751,-5.981
0.049,-0.078,1.015,16.235,-6.531,-5.615
0.046,-0.070,1.011,18.127,-5.249,-5.493
0.040,-0.081,1.006,23.254,-4.456,-6.165
0.038,-0.085,1.015,29.297,-4.211,-7.202
0.038,-0.105,1.001,35.034,-3.540,-8.423
0.036,-0.107,0.997,43.640,-4.211,-9.583
0.030,-0.126,0.990,53.833,-5.676,-10.437
0.025,-0.184,0.993,65.552,-8.362,-10.986
0.015,-0.316,0.997,82.581,-11.047,-10.315
-0.025,-0.479,0.987,113.525,-13.733,-9.399
-0.125,-0.692,0.964,164.917,-19.775,-10.742
-0.236,-0.990,0.999,247.131,-32.959,-15.991
-0.327,-1.327,1.095,351.562,-54.199,-21.606
-0.385,-1.619,1.244,472.717,-80.750,-23.071
-0.456,-1.861,1.359,593.872,-111.755,-17.822
-0.544,-2.070,1.427,706.787,-140.808,-10.071
-0.663,-2.236,1.441,805.420,-170.044,-2.380
-0.707,-2.390,1.357,878.357,-202.271,10.620
-0.714,-2.443,1.166,913.574,-230.713,31.433
-0.672,-2.427,0.884,907.715,-251.282,63.477
-0.662,-2.357,0.589,866.089,-259.033,97.168
-0.546,-2.150,0.370,796.143,-258.972,134.094
-0.425,-1.879,0.192,710.022,-247.925,170.471
-0.364,-1.599,0.039,614.197,-224.243,195.068
-0.349,-1.329,-0.098,529.053,-200.500,204.529
-0.345,-1.110,-0.188,463.501,-181.030,197.815
-0.335,-0.957,-0.259,411.560,-168.884,180.298
-0.377,-0.811,-0.306,369.019,-161.133,158.203
-0.323,-0.665,-0.289,325.439,-161.987,142.883
-0.297,-0.564,-0.289,286.255,-164.124,132.996
-0.250,-0.406,-0.226,244.080,-167.358,125.671
-0.211,-0.259,-0.155,194.031,-171.326,120.667
-0.117,-0.213,-0.077,141.296,-173.706,112.305
-0.047,-0.114,0.038,99.304,-173.157,100.159
0.030,-0.053,0.173,67.322,-171.875,86.914
0.132,-0.072,0.304,40.222,-169.067,72.571
0.194,-0.056,0.418,15.015,-160.278,60.913
0.258,-0.093,0.492,-9.216,-146.545,50.537
0.323,-0.157,0.532,-33.630,-129.272,44.067
0.371,-0.198,0.546,-51.147,-109.680,40.100
0.428,-0.265,0.682,-58.533,-88.745,35.156
0.631,-0.352,1.493,-56.274,-58.655,23.865
0.592,-0.429,1.449,-68.298,-8.240,5.127
0.613,-0.570,0.839,-69.031,38.086,-2.197
0.427,-0.497,0.319,-57.434,56.946,11.414
0.389,-0.547,0.026,-52.734,47.913,26.978
0.428,-0.699,-0.187,-51.697,31.006,34.851
0.411,-0.788,-0.425,-33.508,20.264,35.156
0.413,-0.773,-0.614,-1.831,12.573,28.809
0.433,-0.705,-0.763,22.095,3.845,21.179
0.454,-0.682,-0.877,33.813,-5.310,16.907
0.475,-0.696,-0.926,37.659,-13.855,15.198
0.490,-0.710,-0.961,35.522,-20.142,13.916
0.485,-0.713,-0.964,30.151,-24.353,12.329
0.479,-0.724,-0.926,23.804,-28.137,10.193
0.480,-0.736,-0.850,14.160,-33.020,8.545
0.484,-0.738,-0.678,1.953,-38.940,7.019
0.530,-0.745,-0.435,-6.958,-39.734,4.211
0.551,-0.736,-0.194,-14.771,-32.288,1.648
0.557,-0.725,-0.049,-26.611,-19.592,1.221
0.552,-0.736,-0.017,-39.734,-6.042,2.869
0.515,-0.749,-0.090,-44.800,6.470,4.150
0.483,-0.762,-0.212,-39.429,13.733,3.662
0.462,-0.757,-0.328,-28.870,15.869,2.380
0.455,-0.756,-0.426,-20.203,14.465,1.282
0.447,-0.773,-0.511,-13.733,11.841,0.244
0.453,-0.773,-0.560,-8.667,7.324,0.793
0.459,-0.769,-0.575,-6.104,3.296,2.869
0.462,-0.766,-0.575,-6.470,1.099,4.456
0.468,-0.764,-0.547,-7.324,-0.854,5.798
0.478,-0.765,-0.498,-7.019,-1.709,6.348
0.486,-0.764,-0.464,-4.578,-1.831,5.920
0.491,-0.760,-0.431,-1.526,-1.770,5.188
0.501,-0.755,-0.397,0.366,-2.319,4.700
0.502,-0.746,-0.387,2.014,-1.465,4.395
0.498,-0.741,-0.399,1.587,0.488,4.639
0.495,-0.748,-0.407,-0.061,1.465,4.761
0.493,-0.759,-0.418,-1.465,1.099,4.944
0.493,-0.771,-0.431,-2.686,0.610,5.188
0.488,-0.779,-0.436,-4.028,0.000,5.737
0.484,-0.787,-0.442,-4.395,-0.916,5.859
0.483,-0.790,-0.453,-4.456,-1.404,5.859
0.478,-0.776,-0.457,-4.761,-1.648,5.920
0.477,-0.778,-0.457,-4.639,-2.319,6.042
0.483,-0.769,-0.450,-4.517,-2.441,6.348
0.482,-0.759,-0.453,-3.845,-1.831,6.775
0.480,-0.745,-0.452,-3.052,-0.916,6.409
0.480,-0.738,-0.445,-2.319,-0.305,5.920
0.479,-0.750,-0.441,-2.808,-0.183,5.310
0.484,-0.762,-0.437,-3.723,-0.183,5.066
0.482,-0.774,-0.436,-3.479,0.061,4.822
0.484,-0.785,-0.434,-3.418,0.122,4.578
0.493,-0.785,-0.429,-2.930,0.427,4.456
0.487,-0.790,-0.426,-2.014,0.977,3.967
0.490,-0.796,-0.431,-0.671,1.770,3.174

0.152,-0.079,0.988,12.085,-3.418,-0.732
0.154,-0.080,0.994,10.864,-3.357,-0.183
0.153,-0.082,0.994,11.658,-2.319,0.000
0.152,-0.087,0.991,13.367,-1.526,-0.183
0.149,-0.092,0.988,15.869,-1.038,-0.488
0.148,-0.095,0.982,18.250,-0.854,-0.427
0.146,-0.096,0.974,20.386,-1.038,-0.549
0.143,-0.095,0.981,22.095,-1.404,-0.488
0.144,-0.090,0.980,22.095,-1.526,-0.366
0.149,-0.094,0.984,20.386,-1.770,-0.610
0.147,-0.093,0.986,18.494,-1.282,-0.916
0.150,-0.081,0.982,13.489,-0.610,-0.732
0.148,-0.087,0.975,8.301,-0.610,-0.793
0.151,-0.096,0.971,4.333,-0.854,-0.916
0.151,-0.101,0.967,1.648,-0.977,-0.427
0.152,-0.104,0.974,-0.183,-1.343,0.305
0.151,-0.104,0.969,-0.793,-1.038,0.732
0.151,-0.107,0.971,0.427,-1.160,0.854
0.150,-0.112,0.969,2.563,-0.977,0.854
0.151,-0.111,0.974,4.395,-0.427,1.038
0.146,-0.109,0.977,5.554,-0.122,1.404
0.144,-0.106,0.972,5.188,0.122,1.709
0.144,-0.104,0.973,4.395,-0.671,2.014
0.144,-0.101,0.974,3.479,-1.465,2.319
0.145,-0.103,0.978,2.991,-2.014,2.136
0.147,-0.100,0.982,3.113,-1.831,1.831
0.149,-0.098,0.980,3.113,-1.526,1.465
0.151,-0.092,0.975,2.930,-1.099,1.648
0.149,-0.086,0.969,2.258,-0.122,1.953
0.150,-0.083,0.968,1.404,-0.122,1.892
0.145,-0.085,0.965,0.732,0.000,1.648
0.147,-0.085,0.962,0.671,-0.183,1.160
0.148,-0.086,0.968,1.465,-0.305,0.488
0.142,-0.112,0.969,2.136,-0.549,-0.671
0.140,-0.196,0.984,8.484,-1.282,-3.296
0.124,-0.418,1.012,32.410,-2.258,-10.193
0.084,-0.780,1.084,88.806,-4.333,-26.550
0.058,-1.325,1.299,187.012,-6.348,-50.476
0.116,-1.898,1.622,334.106,-1.526,-72.632
0.188,-2.395,2.018,522.034,9.521,-83.679
0.215,-2.887,2.424,731.995,21.362,-78.918
0.238,-2.797,2.508,920.166,30.151,-56.030
0.110,-2.738,2.240,1061.340,36.743,-37.354
0.050,-2.764,1.893,1120.178,45.410,-12.573
-0.009,-2.575,1.565,1110.901,44.373,25.024
0.001,-2.279,1.242,1054.810,32.043,56.152
0.014,-1.841,0.886,966.736,18.799,78.125
-0.069,-1.612,0.560,849.609,6.958,96.741
-0.116,-1.371,0.330,729.065,-9.033,108.887
-0.206,-1.160,0.169,627.747,-30.212,116.638
-0.336,-1.047,0.072,534.668,-52.979,122.742
-0.412,-0.905,-0.024,461.731,-72.632,124.878
-0.482,-0.691,-0.048,412.231,-93.750,119.995
-0.496,-0.456,-0.013,372.437,-117.920,115.967
-0.501,-0.166,0.016,331.726,-143.677,116.150
-0.468,0.068,0.105,278.625,-172.607,115.723
-0.396,0.301,0.269,222.595,-201.721,115.051
-0.268,0.576,0.478,167.053,-222.351,113.037
-0.116,0.703,0.661,106.140,-227.173,108.521
0.155,0.793,0.778,39.612,-214.294,102.173
0.278,0.731,0.793,-10.498,-186.279,85.693
0.487,0.438,1.319,-38.086,-147.278,57.556
0.916,0.304,1.861,-38.147,-89.417,30.823
1.115,0.192,1.988,-43.762,-16.968,10.559
0.872,-0.230,1.122,-52.429,56.885,-4.639
0.643,-0.359,0.219,-58.472,102.722,-4.211
0.568,-0.506,-0.253,-42.969,92.590,-1.892
0.601,-0.559,-0.368,-17.517,65.430,-4.639
0.651,-0.557,-0.510,5.432,44.250,-11.658
0.654,-0.582,-0.659,24.353,36.316,-18.127
0.620,-0.597,-0.802,30.029,36.133,-18.799
0.563,-0.603,-0.935,25.818,39.307,-13.123
0.508,-0.608,-1.040,17.090,39.307,-6.165
0.469,-0.638,-1.109,10.437,33.386,-1.038
0.432,-0.646,-1.140,12.268,21.912,-0.366
0.418,-0.645,-1.122,20.325,6.470,-4.700
0.414,-0.640,-1.071,27.039,-10.681,-10.803
0.412,-0.626,-1.001,27.405,-28.015,-15.320
0.446,-0.668,-0.843,20.508,-43.518,-16.418
0.489,-0.690,-0.678,7.202,-51.025,-13.733
0.535,-0.752,-0.466,-5.066,-49.377,-9.888
0.586,-0.801,-0.286,-10.437,-37.903,-5.981
0.626,-0.815,-0.160,-12.207,-20.630,-2.014
0.633,-0.787,-0.108,-15.747,-4.028,2.747
0.610,-0.753,-0.154,-21.301,9.094,8.423
0.573,-0.719,-0.259,-22.156,16.479,12.146
0.520,-0.673,-0.390,-14.954,18.372,11.353
0.485,-0.626,-0.516,-6.409,16.357,7.812
0.466,-0.592,-0.605,0.732,11.658,5.188
0.462,-0.574,-0.667,3.601,7.507,3.784
0.468,-0.569,-0.702,1.465,4.150,3.845
0.478,-0.580,-0.715,-1.526,1.282,3.906
0.497,-0.598,-0.711,-3.601,-1.038,3.601
0.508,-0.617,-0.691,-2.014,-2.441,1.953
0.526,-0.632,-0.657,2.563,-3.906,0.122
0.543,-0.644,-0.619,5.432,-4.883,-0.916
0.553,-0.652,-0.574,7.812,-5.066,-1.221
0.559,-0.638,-0.534,9.338,-4.211,-0.916
0.548,-0.638,-0.516,9.399,-2.258,-0.610
0.529,-0.648,-0.527,7.629,-0.854,-0.061
0.516,-0.656,-0.541,5.859,-0.610,0.793
0.508,-0.664,-0.558,4.639,-1.465,2.136
0.501,-0.663,-0.566,4.028,-3.296,2.991
0.498,-0.662,-0.574,3.906,-4.883,2.930
0.500,-0.662,-0.571,4.211,-5.615,2.075
0.500,-0.661,-0.577,5.127,-5.432,0.854
0.501,-0.656,-0.585,5.737,-4.395,0.305
0.501,-0.655,-0.590,5.066,-2.930,0.854
0.501,-0.649,-0.590,3.052,-1.831,1.831
0.500,-0.652,-0.588,1.160,-0.610,2.808
0.500,-0.654,-0.583,-0.488,-0.061,3.235
0.504,-0.655,-0.578,-0.916,0.122,3.113
0.513,-0.654,-0.568,-0.549,-0.061,2.563
0.517,-0.655,-0.554,0.122,-0.793,1.892
0.525,-0.660,-0.548,0.671,-0.977,1.465
0.533,-0.667,-0.545,0.427,-0.549,1.526
0.533,-0.670,-0.542,-0.305,0.244,2.075
0.530,-0.673,-0.553,-0.061,1.160,2.380
0.524,-0.672,-0.576,0.916,2.197,2.197

0.135,0.039,0.983,-1.648,0.061,3.906
0.131,0.032,0.980,-3.845,-0.183,3.845
0.123,0.025,0.978,-4.456,-0.061,3.662
0.122,0.015,0.976,-3.357,0.366,3.235
0.121,0.013,0.979,-1.282,0.610,3.418
0.118,0.014,0.982,0.977,0.366,4.272
0.121,0.014,0.990,3.296,0.488,5.066
0.117,0.020,0.994,5.493,1.038,5.737
0.120,0.014,0.995,6.714,1.892,6.287
0.119,0.013,0.989,7.202,2.197,7.324
0.119,0.008,0.982,8.545,2.502,8.789
0.119,0.017,0.982,10.071,1.831,9.644
0.124,0.017,0.974,10.559,1.099,9.766
0.126,0.025,0.972,10.986,0.793,9.583
0.129,0.032,0.972,10.376,0.671,9.094
0.127,0.042,0.971,9.583,0.916,8.667
0.128,0.048,0.964,7.263,0.793,8.118
0.128,0.045,0.956,4.517,0.427,7.690
0.127,0.048,0.951,3.174,-0.061,7.202
0.125,0.052,0.953,2.747,-0.671,6.470
0.122,0.052,0.955,3.418,-0.977,5.737
0.122,0.063,0.968,3.601,-1.404,5.127
0.118,0.062,0.966,2.380,-1.648,4.578
0.117,0.066,0.978,1.465,-2.075,3.784
0.120,0.062,0.983,0.977,-2.991,2.502
0.123,0.064,0.991,1.343,-3.418,1.709
0.120,0.064,0.994,1.587,-2.869,0.854
0.123,0.064,0.994,1.221,-2.258,0.000
0.126,0.061,0.994,0.854,-1.953,-0.854
0.129,0.063,0.999,1.648,-1.221,-1.709
0.125,0.053,0.997,1.953,-0.305,-2.563
0.124,0.025,1.007,1.587,-0.244,-3.601
0.115,-0.059,1.029,4.761,0.488,-4.822
0.097,-0.281,1.051,22.583,-0.916,-8.972
0.071,-0.610,1.168,73.059,-2.808,-17.151
0.081,-0.972,1.284,146.545,-3.723,-26.306
0.034,-1.400,1.428,253.357,-4.211,-37.598
-0.007,-1.819,1.590,409.180,-4.395,-51.270
0.020,-2.205,1.727,599.304,-4.028,-59.265
-0.015,-2.488,1.777,779.663,-17.517,-61.523
-0.095,-2.639,1.847,905.090,-42.786,-43.396
-0.228,-2.704,1.678,966.797,-67.322,-10.986
-0.258,-2.773,1.367,1007.751,-92.407,23.926
-0.323,-2.697,1.139,1022.217,-116.150,61.951
-0.438,-2.495,0.824,997.437,-140.198,108.643
-0.433,-2.248,0.638,951.721,-162.781,147.827
-0.434,-1.858,0.554,899.353,-181.030,173.889
-0.360,-1.471,0.664,840.271,-196.350,183.716
-0.288,-1.135,0.748,773.499,-202.637,179.565
-0.182,-0.873,0.748,704.712,-194.275,160.339
-0.122,-0.744,0.663,621.277,-178.040,131.714
-0.070,-0.677,0.578,520.874,-157.898,106.812
-0.061,-0.652,0.511,406.555,-135.803,92.712
-0.149,-0.673,0.420,287.109,-115.356,85.693
-0.163,-0.653,0.379,181.152,-108.337,84.656
-0.125,-0.702,0.397,100.830,-114.014,92.712
-0.053,-0.695,0.503,59.753,-124.512,94.238
0.048,-0.689,0.623,59.814,-132.690,89.600
0.138,-0.246,1.221,81.055,-128.601,79.041
0.355,0.878,2.800,84.595,-100.647,44.678
0.475,0.740,2.480,28.931,-53.345,-39.673
0.975,0.476,1.829,-79.590,-35.950,-51.514
0.728,-0.178,0.936,-93.445,58.411,9.888
0.441,-0.972,0.625,-83.679,99.915,50.415
0.408,-0.411,0.170,-51.331,126.160,85.327
0.323,-0.432,-0.478,28.503,158.081,36.072
0.271,-0.545,-0.888,57.312,145.752,-0.793
0.229,-0.492,-1.057,71.289,110.718,-3.845
0.260,-0.567,-1.113,62.500,82.031,-3.723
0.226,-0.591,-1.184,42.664,66.956,-1.160
0.211,-0.639,-1.244,13.672,51.758,2.075
0.233,-0.731,-1.259,-6.836,32.288,1.404
0.279,-0.786,-1.228,-15.991,11.414,0.549
0.317,-0.822,-1.146,-15.320,-10.315,0.305
0.342,-0.786,-1.060,-11.841,-29.480,0.977
0.345,-0.759,-0.966,-12.451,-46.326,1.587
0.346,-0.776,-0.867,-17.395,-60.425,1.038
0.365,-0.724,-0.716,-24.414,-72.449,0.732
0.401,-0.730,-0.605,-28.442,-78.674,0.244
0.462,-0.738,-0.478,-40.039,-77.148,1.221
0.495,-0.693,-0.374,-64.514,-69.153,8.118
0.507,-0.747,-0.270,-104.248,-54.504,19.348
0.527,-0.582,-0.224,-147.644,-35.889,33.386
0.543,-0.663,-0.168,-146.851,-20.508,34.424
0.540,-0.738,-0.226,-130.005,-2.991,29.358
0.572,-0.746,-0.172,-107.727,13.672,22.217
0.517,-0.821,-0.319,-65.857,30.273,14.954
0.465,-0.854,-0.461,-30.212,40.222,10.132
0.428,-0.837,-0.507,-7.080,44.495,8.484
0.373,-0.881,-0.626,20.203,47.546,7.996
0.350,-0.884,-0.732,39.246,43.579,9.766
0.334,-0.822,-0.746,48.035,31.616,13.916
0.342,-0.776,-0.752,52.856,19.226,15.381
0.357,-0.737,-0.766,51.086,9.644,15.198
0.369,-0.720,-0.752,43.335,0.671,14.282
0.394,-0.712,-0.692,31.799,-7.019,13.428
0.412,-0.700,-0.661,19.958,-11.353,13.245
0.410,-0.711,-0.630,8.423,-13.245,13.245
0.423,-0.729,-0.588,-0.732,-15.137,13.428
0.427,-0.718,-0.564,-7.324,-15.991,14.404
0.425,-0.716,-0.523,-9.216,-17.029,14.282
0.429,-0.719,-0.499,-6.226,-15.869,13.000
0.437,-0.716,-0.472,-1.587,-15.076,10.620
0.454,-0.711,-0.447,4.395,-14.404,9.094
0.454,-0.689,-0.449,7.690,-11.475,9.521
0.457,-0.680,-0.452,4.517,-8.728,10.559
0.454,-0.676,-0.460,0.366,-6.348,11.780
0.452,-0.671,-0.456,-2.686,-4.944,12.817
0.458,-0.679,-0.454,-3.418,-4.089,12.390
0.459,-0.690,-0.442,-3.174,-3.418,10.742
0.472,-0.700,-0.435,-3.174,-2.625,8.789
0.491,-0.702,-0.419,-4.333,-0.793,7.324
0.499,-0.714,-0.430,-6.165,2.380,6.470
0.488,-0.718,-0.446,-8.423,5.188,6.470
0.481,-0.729,-0.466,-12.268,6.714,6.958
0.459,-0.759,-0.494,-14.954,7.324,6.897
0.456,-0.767,-0.495,-13.062,4.517,7.507
0.474,-0.775,-0.476,-8.911,1.221,8.667
0.482,-0.778,-0.486,-2.380,0.732,9.705

0.059,0.072,0.954,2.747,-1.099,0.000
0.061,0.068,0.959,2.197,-2.014,0.244
0.063,0.072,0.963,2.380,-2.258,1.221
0.062,0.078,0.970,2.075,-2.197,1.892
0.061,0.081,0.970,1.465,-1.831,2.441
0.062,0.085,0.970,1.648,-1.648,2.380
0.058,0.091,0.970,2.258,-1.526,2.014
0.057,0.089,0.969,3.052,-1.465,1.465
0.045,0.089,0.976,4.150,-1.648,1.099
0.047,0.078,0.987,4.639,-1.831,0.916
0.017,0.090,1.002,4.883,-2.075,1.404
0.049,0.086,1.001,3.357,-1.648,1.587
0.039,0.093,1.006,4.639,-0.732,1.038
0.040,0.094,1.001,4.822,0.244,1.404
0.038,0.101,1.000,5.066,1.038,0.977
0.039,0.104,0.989,4.700,0.854,0.549
0.047,0.101,0.984,4.578,0.732,-0.244
0.043,0.093,0.979,3.113,-0.061,-0.732
0.047,0.086,0.974,2.258,-0.610,-0.916
0.042,0.082,0.974,2.380,-1.160,-1.282
0.053,0.077,0.971,2.197,-1.587,-1.648
0.045,0.079,0.964,1.221,-2.258,-1.648
0.057,0.070,0.961,1.526,-2.075,-1.465
0.046,0.074,0.959,1.526,-2.319,-1.404
0.054,0.069,0.953,1.648,-2.869,-1.099
0.049,0.070,0.953,3.235,-3.113,-1.038
0.049,0.070,0.946,5.554,-3.357,-1.038
0.049,0.073,0.946,8.179,-3.601,-1.221
0.045,0.080,0.951,10.254,-4.089,-1.404
0.046,0.083,0.960,11.841,-4.578,-1.465
0.045,0.093,0.981,13.672,-4.883,-1.465
0.041,0.095,0.993,15.442,-3.967,-1.953
0.040,0.062,0.996,22.827,-2.014,-3.906
0.030,-0.048,0.994,46.387,-0.427,-7.385
0.030,-0.238,1.008,93.872,0.122,-13.062
0.004,-0.518,1.064,171.997,0.732,-21.301
-0.021,-0.925,1.159,288.513,0.427,-34.424
-0.044,-1.333,1.336,432.922,-3.784,-48.157
-0.066,-1.714,1.551,573.486,-13.367,-54.993
-0.111,-2.301,1.837,714.111,-24.109,-55.237
-0.153,-2.782,2.147,846.497,-40.894,-49.561
-0.199,-3.046,2.386,948.486,-54.138,-34.668
-0.214,-3.001,2.347,1004.028,-66.101,5.066
-0.163,-2.950,2.278,1008.240,-80.872,59.448
-0.225,-2.744,1.991,973.999,-94.116,106.689
-0.200,-2.496,1.770,920.959,-99.915,164.612
-0.118,-2.037,1.549,853.027,-97.778,218.323
-0.030,-1.472,1.381,777.893,-91.614,246.643
-0.016,-0.898,1.093,696.106,-71.411,256.958
-0.099,-0.461,0.726,594.360,-39.795,251.038
-0.164,-0.162,0.386,483.276,-8.362,224.609
-0.298,0.027,-0.041,376.099,14.160,188.721
-0.393,0.057,-0.181,269.653,12.634,152.527
-0.434,0.058,-0.287,179.260,0.854,128.113
-0.391,0.037,-0.367,101.868,-16.968,118.225
-0.284,0.031,-0.323,41.321,-44.678,116.272
-0.144,0.073,-0.251,5.310,-72.937,116.699
-0.001,0.186,-0.179,-18.005,-96.985,119.324
0.096,0.303,-0.101,-36.743,-109.497,122.620
0.170,0.369,-0.009,-58.838,-115.417,119.446
0.251,0.362,0.116,-79.956,-113.281,108.948
0.332,0.301,0.239,-103.577,-102.417,92.529
0.383,0.200,0.325,-129.211,-84.717,74.890
0.432,0.094,0.385,-147.766,-63.721,57.739
0.479,0.007,0.428,-157.837,-42.908,40.283
0.486,-0.135,0.433,-151.611,-22.400,21.729
0.483,-0.229,0.358,-134.033,-2.502,4.456
0.452,-0.334,0.324,-110.046,13.306,-7.874
0.463,-0.453,0.253,-85.632,25.818,-16.907
0.466,-0.575,0.167,-62.134,34.180,-21.851
0.481,-0.663,0.082,-44.556,38.513,-22.522
0.492,-0.745,-0.009,-25.635,38.879,-24.353
0.497,-0.801,-0.072,-7.507,36.560,-25.269
0.488,-0.828,-0.123,7.812,33.264,-24.536
0.470,-0.850,-0.160,18.188,28.992,-24.109
0.453,-0.901,-0.213,22.156,25.024,-23.987
0.456,-0.970,-0.265,20.325,20.935,-23.071
0.456,-1.027,-0.294,16.785,15.930,-19.409
0.454,-1.071,-0.302,13.611,10.315,-13.733
0.463,-1.110,-0.289,14.404,5.737,-8.789
0.474,-1.116,-0.272,18.677,3.052,-4.639
0.477,-1.114,-0.273,23.315,2.686,-0.854
0.476,-1.111,-0.292,26.306,4.089,2.136
0.450,-1.088,-0.321,25.208,6.226,6.653
0.426,-1.041,-0.330,19.714,6.836,12.573
0.405,-0.995,-0.338,11.292,5.371,17.822
0.389,-0.942,-0.330,4.944,2.686,21.423
0.384,-0.891,-0.327,1.526,-0.488,22.217
0.385,-0.858,-0.323,0.122,-4.028,20.813
0.399,-0.840,-0.299,0.366,-7.751,18.982
0.416,-0.823,-0.267,2.502,-11.597,17.456
0.436,-0.800,-0.232,6.897,-13.611,15.930
0.458,-0.782,-0.214,12.085,-13.489,13.855
0.466,-0.765,-0.215,16.357,-11.047,11.292
0.471,-0.755,-0.227,17.273,-7.996,9.216
0.471,-0.747,-0.229,13.977,-5.615,8.240
0.474,-0.748,-0.225,8.362,-3.784,7.324
0.477,-0.758,-0.228,1.831,-2.502,6.104
0.480,-0.792,-0.242,-3.418,-1.404,4.395
0.488,-0.824,-0.253,-3.601,-1.648,3.113
0.488,-0.847,-0.261,-0.122,-3.540,2.502
0.490,-0.859,-0.265,5.493,-5.676,2.197
0.499,-0.867,-0.252,9.827,-7.812,2.075
0.501,-0.866,-0.233,12.573,-9.155,2.502
0.506,-0.871,-0.213,13.123,-8.362,2.991
0.503,-0.870,-0.209,10.315,-5.920,3.784
0.497,-0.871,-0.212,5.615,-2.991,5.005
0.487,-0.873,-0.227,1.343,0.549,5.859
0.474,-0.877,-0.247,-1.770,2.258,6.348
0.464,-0.875,-0.255,-1.709,2.747,6.653
0.458,-0.859,-0.261,0.977,1.343,7.141
0.455,-0.846,-0.257,4.211,-0.122,6.714
0.460,-0.841,-0.252,5.981,-2.136,6.226
0.463,-0.843,-0.244,6.287,-3.296,5.798
0.471,-0.851,-0.243,5.920,-3.296,5.432
0.475,-0.856,-0.250,5.676,-2.625,5.554
0.476,-0.857,-0.255,4.456,-2.380,5.920
0.477,-0.856,-0.260,3.906,-1.953,6.287
0.476,-0.849,-0.256,3.906,-2.014,6.592

0.065,0.235,0.928,0.305,-3.052,1.099
0.065,0.229,0.934,-0.061,-4.211,1.770
0.077,0.231,0.933,0.183,-4.883,2.136
0.069,0.232,0.944,1.770,-5.127,2.625
0.065,0.237,0.954,3.845,-4.761,2.808
0.064,0.238,0.956,6.531,-4.089,2.563
0.065,0.247,0.954,7.812,-3.662,2.197
0.065,0.252,0.954,7.019,-3.052,2.441
0.064,0.251,0.959,5.615,-2.991,2.563
0.065,0.242,0.958,6.104,-2.991,2.380
0.065,0.237,0.955,7.874,-2.625,1.892
0.064,0.234,0.953,9.460,-2.380,1.526
0.061,0.234,0.951,11.047,-1.770,1.953
0.062,0.238,0.951,10.925,-1.892,2.319
0.059,0.242,0.951,10.071,-1.831,2.502
0.057,0.241,0.952,9.399,-1.770,2.502
0.057,0.240,0.952,9.094,-1.343,2.319
0.057,0.242,0.951,8.850,-2.686,2.380
0.058,0.246,0.951,10.254,-1.221,1.892
0.058,0.250,0.955,10.681,-2.258,1.465
0.057,0.257,0.954,11.414,-0.916,1.465
0.054,0.265,0.961,9.827,-2.625,1.831
0.055,0.266,0.963,7.690,-2.075,1.648
0.056,0.267,0.965,5.432,-2.563,1.404
0.055,0.266,0.965,5.310,-1.465,1.099
0.058,0.262,0.969,4.456,-2.258,0.244
0.059,0.257,0.974,4.944,-2.014,-0.305
0.058,0.256,0.971,5.554,-0.977,-0.916
0.054,0.261,0.972,5.859,-0.671,-0.977
0.051,0.272,0.979,6.470,-0.183,-1.343
0.056,0.281,0.992,8.362,0.610,-1.892
0.048,0.235,1.006,16.235,1.099,-3.784
0.049,0.092,1.038,38.879,2.686,-9.521
0.044,-0.159,1.119,84.717,2.808,-21.545
0.030,-0.511,1.247,163.940,3.357,-40.466
0.050,-0.853,1.397,281.555,7.080,-61.829
0.061,-1.177,1.554,430.786,9.399,-75.867
0.001,-1.459,1.747,588.074,7.324,-79.590
-0.090,-1.861,1.988,727.966,-5.920,-76.843
-0.112,-2.261,2.211,836.121,-25.818,-71.533
-0.089,-2.594,2.254,902.344,-45.105,-58.899
-0.135,-2.815,2.115,942.322,-64.331,-35.339
-0.185,-2.910,1.837,953.796,-83.069,13.733
-0.306,-2.846,1.531,936.096,-100.891,84.229
-0.346,-2.585,1.336,892.395,-121.765,162.903
-0.359,-2.191,1.213,832.214,-138.977,227.844
-0.260,-1.704,1.177,766.846,-146.484,262.268
-0.176,-1.220,1.161,706.543,-143.982,271.667
-0.135,-0.771,1.081,639.099,-131.897,263.916
-0.122,-0.409,0.862,559.631,-111.084,238.953
-0.132,-0.234,0.676,468.445,-86.792,204.285
-0.204,-0.140,0.522,371.338,-72.998,167.664
-0.193,-0.096,0.454,269.470,-69.153,140.991
-0.373,-0.201,0.450,176.392,-71.106,119.751
-0.329,-0.330,0.528,102.600,-84.961,108.704
-0.264,-0.275,0.639,54.443,-102.417,111.755
-0.181,-0.197,0.774,29.846,-117.004,120.728
0.008,-0.022,0.892,21.606,-121.765,126.831
0.112,0.160,0.915,20.508,-115.723,126.160
0.223,0.349,0.880,15.076,-97.595,119.385
0.302,0.441,0.811,-4.150,-69.519,108.704
0.376,0.365,0.700,-32.898,-34.119,87.585
0.404,0.181,0.541,-60.974,3.906,58.899
0.371,-0.044,0.381,-80.811,38.757,33.203
0.331,-0.259,0.185,-87.219,68.176,15.381
0.321,-0.462,-0.021,-77.881,88.196,4.272
0.338,-0.598,-0.227,-52.856,96.619,-1.770
0.372,-0.687,-0.425,-22.278,94.116,-3.967
0.412,-0.719,-0.557,2.563,81.970,-2.075
0.477,-0.732,-0.635,17.578,65.063,1.099
0.532,-0.752,-0.684,25.146,48.889,3.357
0.569,-0.770,-0.692,27.405,35.889,4.089
0.588,-0.823,-0.691,25.024,25.513,4.150
0.590,-0.882,-0.675,21.301,17.761,3.967
0.564,-0.904,-0.649,19.348,10.315,5.981
0.527,-0.901,-0.620,17.944,3.235,9.216
0.496,-0.886,-0.562,16.357,-5.127,12.573
0.475,-0.863,-0.497,14.771,-13.855,15.137
0.461,-0.831,-0.417,15.503,-22.583,16.479
0.457,-0.793,-0.335,18.311,-30.640,16.357
0.456,-0.764,-0.267,20.203,-36.499,15.015
0.465,-0.754,-0.190,17.700,-39.673,13.123
0.488,-0.761,-0.119,11.108,-39.001,10.559
0.505,-0.775,-0.075,3.906,-32.776,8.118
0.509,-0.783,-0.042,-2.441,-23.865,7.080
0.522,-0.785,-0.050,-8.789,-13.977,7.568
0.509,-0.780,-0.091,-13.306,-3.662,8.362
0.494,-0.765,-0.135,-14.893,4.272,8.606
0.484,-0.764,-0.166,-13.306,8.423,7.141
0.486,-0.769,-0.196,-8.240,9.216,3.906
0.491,-0.784,-0.237,-2.136,8.423,0.610
0.502,-0.803,-0.262,0.305,6.226,-0.977
0.518,-0.819,-0.268,-0.732,3.052,-1.038
0.533,-0.835,-0.266,-1.587,0.854,0.061
0.552,-0.848,-0.258,-0.732,-0.671,0.488
0.565,-0.860,-0.255,2.991,-1.282,0.549
0.565,-0.856,-0.254,8.728,-0.244,1.221
0.553,-0.846,-0.264,13.428,1.221,2.319
0.545,-0.839,-0.270,14.526,1.770,3.113
0.538,-0.836,-0.283,13.428,2.075,4.272
0.527,-0.822,-0.293,10.864,2.747,5.249
0.516,-0.812,-0.294,7.202,2.869,5.981
0.504,-0.810,-0.303,2.380,3.296,6.165
0.495,-0.812,-0.312,-2.502,3.357,5.920
0.490,-0.821,-0.307,-4.822,2.991,5.554
0.488,-0.827,-0.306,-3.052,2.014,4.883
0.484,-0.819,-0.303,1.221,0.854,4.578
0.487,-0.812,-0.301,4.517,-0.610,4.211
0.495,-0.807,-0.301,5.737,-1.221,3.540
0.497,-0.805,-0.298,4.700,-1.343,3.235
0.500,-0.808,-0.288,2.991,-1.038,2.563
0.499,-0.814,-0.284,1.038,-0.732,1.892
0.499,-0.821,-0.280,-0.427,-0.305,1.648
0.504,-0.831,-0.276,-1.160,-0.061,2.197
0.510,-0.833,-0.267,-0.854,0.122,2.991
0.514,-0.835,-0.263,1.160,1.099,3.357
0.518,-0.835,-0.260,4.211,1.892,3.296
0.518,-0.833,-0.268,6.531,2.747,3.540
0.519,-0.827,-0.270,7.202,3.357,3.784